File: conjugated_ECPs/uv_vis_automated/initial_experimental_data_batch1/metadata/A2-100.txt
Wavelength (nm)	Absorbance
350	0.24554
351	0.24565
352	0.24588
353	0.24722
354	0.24834
355	0.24891
356	0.25306
357	0.25497
358	0.25609
359	0.25777
360	0.25901
361	0.2599
362	0.26069
363	0.26136
364	0.26204
365	0.26293
366	0.26361
367	0.26417
368	0.26518
369	0.26619
370	0.26731
371	0.26922
372	0.27056
373	0.27281
374	0.27483
375	0.27674
376	0.27954
377	0.28111
378	0.28268
379	0.28426
380	0.28605
381	0.2883
382	0.28908
383	0.29065
384	0.29155
385	0.29402
386	0.29447
387	0.29671
388	0.29941
389	0.30053
390	0.30288
391	0.30502
392	0.30704
393	0.30872
394	0.31052
395	0.31276
396	0.31377
397	0.31702
398	0.31826
399	0.32005
400	0.32263
401	0.32881
402	0.32869
403	0.33352
404	0.3361
405	0.33924
406	0.34261
407	0.34519
408	0.34912
409	0.35249
410	0.35608
411	0.35956
412	0.36259
413	0.36618
414	0.37055
415	0.37482
416	0.37931
417	0.38312
418	0.38739
419	0.39244
420	0.39771
421	0.40153
422	0.40568
423	0.41017
424	0.41387
425	0.41769
426	0.4215
427	0.42678
428	0.43115
429	0.43587
430	0.44372
431	0.44428
432	0.45494
433	0.46044
434	0.46751
435	0.47324
436	0.48199
437	0.49175
438	0.50039
439	0.50544
440	0.51319
441	0.52059
442	0.52946
443	0.53069
444	0.54203
445	0.54854
446	0.5565
447	0.55886
448	0.57098
449	0.57188
450	0.58433
451	0.59365
452	0.60397
453	0.60375
454	0.61665
455	0.62642
456	0.63607
457	0.63786
458	0.65054
459	0.65986
460	0.66109
461	0.67265
462	0.67804
463	0.68724
464	0.69498
465	0.70766
466	0.71563
467	0.72405
468	0.73123
469	0.74313
470	0.75098
471	0.75917
472	0.76378
473	0.7769
474	0.7842
475	0.79306
476	0.80092
477	0.81225
478	0.82247
479	0.83358
480	0.84211
481	0.8485
482	0.85759
483	0.86152
484	0.87005
485	0.87577
486	0.88004
487	0.8852
488	0.8907
489	0.89743
490	0.9063
491	0.91168
492	0.91516
493	0.92369
494	0.92672
495	0.92997
496	0.93581
497	0.94468
498	0.94535
499	0.95388
500	0.95825
501	0.96409
502	0.97071
503	0.97453
504	0.97924
505	0.98294
506	0.9862
507	0.989
508	0.99214
509	0.9945
510	0.99495
511	0.99596
512	0.99843
513	1
514	1
515	0.99921
516	0.99776
517	0.99697
518	0.99506
519	0.99461
520	0.99102
521	0.98822
522	0.98317
523	0.97756
524	0.96936
525	0.96308
526	0.95691
527	0.94827
528	0.94445
529	0.93985
530	0.93155
531	0.9265
532	0.91718
533	0.9091
534	0.89923
535	0.89227
536	0.88183
537	0.8733
538	0.86219
539	0.85984
540	0.84536
541	0.8338
542	0.82886
543	0.82292
544	0.81427
545	0.80676
546	0.79789
547	0.78959
548	0.78768
549	0.77477
550	0.76164
551	0.75098
552	0.74717
553	0.73875
554	0.7236
555	0.71877
556	0.71025
557	0.69465
558	0.68488
559	0.66614
560	0.65301
561	0.64583
562	0.62574
563	0.61194
564	0.5969
565	0.58355
566	0.57132
567	0.55718
568	0.53294
569	0.51745
570	0.5005
571	0.48479
572	0.46942
573	0.44956
574	0.43104
575	0.41062
576	0.39289
577	0.37919
578	0.3627
579	0.34732
580	0.3251
581	0.30648
582	0.29424
583	0.27191
584	0.24879
585	0.24711
586	0.22635
587	0.21277
588	0.20301
589	0.19156
590	0.18258
591	0.16575
592	0.15767
593	0.14903
594	0.14095
595	0.13568
596	0.12894
597	0.12232
598	0.11772
599	0.11312
600	0.11009
601	0.1056
602	0.10279
603	0.09887
604	0.09629
605	0.09292
606	0.09124
607	0.08955
608	0.08787
609	0.08652
610	0.08484
611	0.08349
612	0.08215
613	0.08147
614	0.08013
615	0.079
616	0.07811
617	0.07743
618	0.07631
619	0.07519
620	0.07463
621	0.07395
622	0.07328
623	0.07294
624	0.07182
625	0.07126
626	0.0707
627	0.07036
628	0.06991
629	0.06969
630	0.0689
631	0.06834
632	0.06823
633	0.06767
634	0.06733
635	0.06666
636	0.06655
637	0.06599
638	0.06554
639	0.06486
640	0.06486
641	0.06441
642	0.0643
643	0.06374
644	0.06363
645	0.06284
646	0.06273
647	0.06239
648	0.06172
649	0.06161
650	0.06116
651	0.06105
652	0.06082
653	0.0606
654	0.06015
655	0.0597
656	0.05959
657	0.05925
658	0.05903
659	0.0588
660	0.05847
661	0.05824
662	0.05802
663	0.05802
664	0.05791
665	0.05746
666	0.05734
667	0.05712
668	0.05667
669	0.05667
670	0.05622
671	0.05611
672	0.05589
673	0.05566
674	0.05544
675	0.0551
676	0.05499
677	0.05465
678	0.05454
679	0.0542
680	0.05431
681	0.05398
682	0.05387
683	0.05375
684	0.05342
685	0.05353
686	0.0533
687	0.05297
688	0.05297
689	0.05286
690	0.05274
691	0.05263
692	0.05229
693	0.05207
694	0.05196
695	0.05162
696	0.05173
697	0.05117
698	0.0514
699	0.05117
700	0.05117
701	0.05106
702	0.05095
703	0.05072
704	0.05061
705	0.05039
706	0.05016
707	0.05027
708	0.05039
709	0.05027
710	0.05016
711	0.05005
712	0.04994
713	0.05005
714	0.04971
715	0.04971
716	0.0496
717	0.04926
718	0.04938
719	0.04926
720	0.04938
721	0.04904
722	0.04915
723	0.04915
724	0.04926
725	0.04915
726	0.04904
727	0.04915
728	0.04882
729	0.04938
730	0.04949
731	0.04915
732	0.04949
733	0.04949
734	0.04971
735	0.04983
736	0.04994
737	0.04994
738	0.05005
739	0.05005
740	0.05016
741	0.05016
742	0.04994
743	0.04994
744	0.0496
745	0.0496
746	0.04938
747	0.04938
748	0.04926
749	0.04882
750	0.04859
751	0.0487
752	0.04825
753	0.04814
754	0.04814
755	0.04769
756	0.04781
757	0.04747
758	0.04713
759	0.0468
760	0.0468
761	0.04668
762	0.04691
763	0.04691
764	0.0468
765	0.04668
766	0.04657
767	0.04635
768	0.04635
769	0.04657
770	0.04657
771	0.04601
772	0.04623
773	0.04612
774	0.0459
775	0.0459
776	0.04601
777	0.04556
778	0.04579
779	0.04579
780	0.04567
781	0.04556
782	0.04567
783	0.04556
784	0.04545
785	0.04534
786	0.04511
787	0.04534
788	0.045
789	0.04478
790	0.04511
791	0.04489
792	0.04478
793	0.04466
794	0.04444
795	0.04455
796	0.04466
797	0.04444
798	0.04489
799	0.04455
800	0.04422