File: conjugated_ECPs/uv_vis_automated/initial_experimental_data_batch1/metadata/A4-50-B3-50-Yellow.txt
Wavelength (nm)	Absorbance
350	0.44048
351	0.44527
352	0.44869
353	0.45323
354	0.45983
355	0.46375
356	0.47321
357	0.47987
358	0.48385
359	0.48933
360	0.49362
361	0.49848
362	0.5032
363	0.50731
364	0.51298
365	0.51758
366	0.52051
367	0.52903
368	0.53214
369	0.54198
370	0.54801
371	0.55523
372	0.56226
373	0.56836
374	0.58106
375	0.58429
376	0.59481
377	0.60184
378	0.61068
379	0.61833
380	0.62972
381	0.63819
382	0.64889
383	0.66078
384	0.66986
385	0.67901
386	0.68511
387	0.69675
388	0.70988
389	0.72145
390	0.73097
391	0.73813
392	0.74933
393	0.75779
394	0.76657
395	0.77366
396	0.78119
397	0.78879
398	0.79625
399	0.80148
400	0.81312
401	0.83297
402	0.84405
403	0.85127
404	0.85793
405	0.86689
406	0.87759
407	0.88207
408	0.88979
409	0.89838
410	0.90485
411	0.91443
412	0.92022
413	0.92601
414	0.93354
415	0.94231
416	0.9499
417	0.95414
418	0.95955
419	0.96559
420	0.97312
421	0.97424
422	0.97903
423	0.98083
424	0.98164
425	0.99098
426	0.98662
427	0.99123
428	0.99166
429	0.99546
430	0.99745
431	0.99658
432	0.99876
433	1
434	0.99925
435	0.99739
436	0.99745
437	0.99284
438	0.98998
439	0.98973
440	0.98538
441	0.98413
442	0.97617
443	0.97903
444	0.96814
445	0.96341
446	0.95855
447	0.95613
448	0.94486
449	0.93715
450	0.93229
451	0.91711
452	0.91188
453	0.898
454	0.88524
455	0.88244
456	0.86297
457	0.85793
458	0.83963
459	0.82276
460	0.82233
461	0.80465
462	0.7942
463	0.77609
464	0.76539
465	0.74273
466	0.72767
467	0.71174
468	0.69544
469	0.67478
470	0.65648
471	0.6426
472	0.63146
473	0.60029
474	0.58379
475	0.56251
476	0.54552
477	0.52038
478	0.49754
479	0.47607
480	0.44589
481	0.42803
482	0.40699
483	0.39561
484	0.37457
485	0.35808
486	0.34514
487	0.33462
488	0.31869
489	0.30232
490	0.28409
491	0.26959
492	0.25963
493	0.24177
494	0.23144
495	0.22603
496	0.21246
497	0.19447
498	0.18657
499	0.17556
500	0.1674
501	0.1562
502	0.14774
503	0.14201
504	0.13361
505	0.12689
506	0.12197
507	0.11556
508	0.11177
509	0.10729
510	0.10218
511	0.09876
512	0.09441
513	0.09073
514	0.08787
515	0.08457
516	0.08208
517	0.07972
518	0.07779
519	0.07592
520	0.07393
521	0.07213
522	0.0702
523	0.06858
524	0.06733
525	0.0659
526	0.06466
527	0.06391
528	0.06292
529	0.06242
530	0.06161
531	0.06124
532	0.06049
533	0.0603
534	0.05912
535	0.05912
536	0.0585
537	0.05794
538	0.05769
539	0.05744
540	0.05725
541	0.05688
542	0.05657
543	0.05644
544	0.0562
545	0.0562
546	0.05632
547	0.05582
548	0.05595
549	0.05564
550	0.05551
551	0.05545
552	0.05545
553	0.0552
554	0.05507
555	0.05489
556	0.05483
557	0.05483
558	0.05483
559	0.05476
560	0.05451
561	0.05458
562	0.05451
563	0.05439
564	0.05427
565	0.05427
566	0.05433
567	0.0542
568	0.05414
569	0.05395
570	0.05402
571	0.05389
572	0.05383
573	0.05383
574	0.05383
575	0.05383
576	0.05371
577	0.05377
578	0.05383
579	0.05383
580	0.05358
581	0.05371
582	0.05377
583	0.05364
584	0.05364
585	0.05364
586	0.05352
587	0.05346
588	0.05346
589	0.05339
590	0.05339
591	0.05333
592	0.05327
593	0.05308
594	0.05302
595	0.05308
596	0.05302
597	0.05296
598	0.05302
599	0.05302
600	0.0529
601	0.05283
602	0.0529
603	0.05308
604	0.05283
605	0.05283
606	0.05265
607	0.05265
608	0.05283
609	0.05271
610	0.05283
611	0.05271
612	0.05265
613	0.05271
614	0.05265
615	0.05277
616	0.0529
617	0.05277
618	0.05271
619	0.05252
620	0.05259
621	0.05246
622	0.05246
623	0.0524
624	0.05234
625	0.05221
626	0.05227
627	0.05234
628	0.05227
629	0.05234
630	0.0524
631	0.05221
632	0.05234
633	0.05221
634	0.0524
635	0.05221
636	0.05215
637	0.05221
638	0.05209
639	0.05221
640	0.05227
641	0.05209
642	0.05203
643	0.05221
644	0.05196
645	0.05196
646	0.05196
647	0.05196
648	0.05184
649	0.0519
650	0.05178
651	0.05184
652	0.05171
653	0.05171
654	0.05184
655	0.05171
656	0.05153
657	0.05153
658	0.05153
659	0.05153
660	0.05153
661	0.05147
662	0.05147
663	0.05134
664	0.05159
665	0.05147
666	0.05159
667	0.05153
668	0.05134
669	0.05134
670	0.0514
671	0.0514
672	0.0514
673	0.0514
674	0.05122
675	0.05128
676	0.05115
677	0.05115
678	0.05115
679	0.05115
680	0.05109
681	0.05109
682	0.05103
683	0.05103
684	0.05097
685	0.05109
686	0.05109
687	0.05109
688	0.05103
689	0.05109
690	0.05109
691	0.05103
692	0.05091
693	0.05072
694	0.05066
695	0.05078
696	0.05078
697	0.05053
698	0.05047
699	0.05059
700	0.05047
701	0.05072
702	0.05066
703	0.05066
704	0.05059
705	0.05053
706	0.05053
707	0.05072
708	0.05041
709	0.05035
710	0.05047
711	0.05041
712	0.05028
713	0.05028
714	0.05047
715	0.05053
716	0.05028
717	0.05035
718	0.05035
719	0.05047
720	0.05035
721	0.05041
722	0.05028
723	0.05035
724	0.05003
725	0.05022
726	0.05003
727	0.05022
728	0.0501
729	0.05016
730	0.0501
731	0.04991
732	0.04997
733	0.05003
734	0.05003
735	0.05016
736	0.05003
737	0.0501
738	0.04997
739	0.04997
740	0.05003
741	0.04991
742	0.05016
743	0.04985
744	0.04991
745	0.05003
746	0.0501
747	0.04979
748	0.04991
749	0.04985
750	0.04985
751	0.04954
752	0.04991
753	0.04985
754	0.04997
755	0.0496
756	0.0496
757	0.04979
758	0.04991
759	0.04972
760	0.04979
761	0.04941
762	0.04966
763	0.04979
764	0.04979
765	0.04972
766	0.04966
767	0.04979
768	0.04985
769	0.04979
770	0.04972
771	0.04972
772	0.0496
773	0.04954
774	0.04954
775	0.04929
776	0.0496
777	0.04947
778	0.04935
779	0.04941
780	0.04941
781	0.04941
782	0.04947
783	0.0496
784	0.04941
785	0.04929
786	0.04947
787	0.04923
788	0.04923
789	0.04935
790	0.04923
791	0.04929
792	0.04929
793	0.04929
794	0.04935
795	0.04941
796	0.04941
797	0.04923
798	0.04923
799	0.04941
800	0.04935