File: conjugated_ECPs/uv_vis_automated/initial_experimental_data_batch1/metadata/A4-80-A2-20-Orange.txt
Wavelength (nm)	Absorbance
350	0.31351
351	0.31372
352	0.31435
353	0.31456
354	0.31594
355	0.31657
356	0.31996
357	0.32176
358	0.32441
359	0.32652
360	0.32864
361	0.33065
362	0.33298
363	0.33499
364	0.33806
365	0.34007
366	0.34208
367	0.34706
368	0.35108
369	0.35436
370	0.35775
371	0.36188
372	0.36431
373	0.36833
374	0.3713
375	0.37362
376	0.37722
377	0.37976
378	0.3822
379	0.38516
380	0.38823
381	0.39193
382	0.39627
383	0.39945
384	0.40326
385	0.40855
386	0.41088
387	0.41617
388	0.42199
389	0.42506
390	0.42993
391	0.4348
392	0.43776
393	0.44147
394	0.44539
395	0.44888
396	0.45174
397	0.45459
398	0.45809
399	0.46052
400	0.46391
401	0.47174
402	0.47195
403	0.47841
404	0.48127
405	0.48592
406	0.4892
407	0.49333
408	0.49894
409	0.50497
410	0.50878
411	0.51503
412	0.5199
413	0.52445
414	0.53101
415	0.53609
416	0.54043
417	0.54498
418	0.54837
419	0.55345
420	0.55747
421	0.56224
422	0.56488
423	0.56901
424	0.57229
425	0.57578
426	0.57949
427	0.5852
428	0.5906
429	0.59483
430	0.60489
431	0.60584
432	0.6178
433	0.62627
434	0.634
435	0.64172
436	0.65231
437	0.66501
438	0.67443
439	0.68014
440	0.68851
441	0.69623
442	0.70406
443	0.70523
444	0.71454
445	0.71952
446	0.7246
447	0.72566
448	0.73243
449	0.73232
450	0.73973
451	0.74301
452	0.74873
453	0.74809
454	0.75497
455	0.76006
456	0.76566
457	0.76683
458	0.77456
459	0.78101
460	0.78334
461	0.79001
462	0.79467
463	0.80133
464	0.80726
465	0.81721
466	0.82462
467	0.83182
468	0.83785
469	0.84695
470	0.85309
471	0.85923
472	0.86219
473	0.87246
474	0.87902
475	0.88453
476	0.88992
477	0.8967
478	0.90421
479	0.90908
480	0.91628
481	0.9203
482	0.92411
483	0.92707
484	0.93215
485	0.93565
486	0.93776
487	0.93978
488	0.94327
489	0.94697
490	0.95248
491	0.95385
492	0.9566
493	0.96094
494	0.9638
495	0.9656
496	0.96793
497	0.97312
498	0.9747
499	0.97936
500	0.98084
501	0.98434
502	0.98666
503	0.98772
504	0.99069
505	0.99185
506	0.99227
507	0.99492
508	0.99513
509	0.9964
510	0.99682
511	0.99682
512	0.99905
513	0.99862
514	0.9982
515	0.99884
516	0.99926
517	0.99958
518	0.99936
519	1
520	0.99947
521	0.99862
522	0.9982
523	0.9964
524	0.99471
525	0.99164
526	0.98857
527	0.98582
528	0.98381
529	0.97957
530	0.97682
531	0.9711
532	0.96412
533	0.96063
534	0.94898
535	0.94793
536	0.93607
537	0.92813
538	0.91638
539	0.91395
540	0.89977
541	0.88696
542	0.88177
543	0.87415
544	0.86378
545	0.85531
546	0.84632
547	0.8352
548	0.83298
549	0.81774
550	0.80409
551	0.79403
552	0.78959
553	0.78207
554	0.7699
555	0.76514
556	0.75974
557	0.74894
558	0.7427
559	0.73211
560	0.72481
561	0.72015
562	0.70989
563	0.70279
564	0.69602
565	0.6884
566	0.68205
567	0.6739
568	0.66215
569	0.65358
570	0.64416
571	0.63569
572	0.62606
573	0.61293
574	0.60087
575	0.58647
576	0.57324
577	0.56382
578	0.54943
579	0.53694
580	0.51736
581	0.50011
582	0.4874
583	0.46338
584	0.43724
585	0.43501
586	0.40813
587	0.38971
588	0.375
589	0.3568
590	0.3424
591	0.31319
592	0.29572
593	0.27911
594	0.26058
595	0.25032
596	0.2337
597	0.21602
598	0.20417
599	0.19157
600	0.18237
601	0.16871
602	0.16056
603	0.14638
604	0.13548
605	0.12923
606	0.12362
607	0.11865
608	0.11336
609	0.10923
610	0.10489
611	0.10034
612	0.09738
613	0.09536
614	0.09145
615	0.08944
616	0.08711
617	0.08552
618	0.0833
619	0.08108
620	0.08002
621	0.07885
622	0.07748
623	0.07674
624	0.07536
625	0.07483
626	0.07367
627	0.07314
628	0.0725
629	0.0724
630	0.07144
631	0.0707
632	0.07039
633	0.06986
634	0.06933
635	0.06848
636	0.06816
637	0.06785
638	0.06742
639	0.06689
640	0.06668
641	0.06626
642	0.06605
643	0.06541
644	0.0652
645	0.06467
646	0.06435
647	0.06393
648	0.06351
649	0.06361
650	0.06287
651	0.06276
652	0.06234
653	0.06192
654	0.06171
655	0.06149
656	0.06139
657	0.06097
658	0.06086
659	0.06054
660	0.06033
661	0.06033
662	0.05959
663	0.0597
664	0.05948
665	0.05906
666	0.05885
667	0.05874
668	0.05843
669	0.05821
670	0.05811
671	0.05758
672	0.05747
673	0.05737
674	0.05726
675	0.05694
676	0.05673
677	0.05641
678	0.05631
679	0.05599
680	0.05599
681	0.0561
682	0.05546
683	0.05546
684	0.05514
685	0.05504
686	0.05493
687	0.05472
688	0.0544
689	0.05451
690	0.05419
691	0.05419
692	0.05377
693	0.05334
694	0.05356
695	0.05303
696	0.05334
697	0.05271
698	0.05271
699	0.0526
700	0.0526
701	0.0525
702	0.05239
703	0.05218
704	0.0525
705	0.05197
706	0.05165
707	0.05165
708	0.05165
709	0.05144
710	0.05155
711	0.05123
712	0.05091
713	0.05123
714	0.05112
715	0.05112
716	0.05091
717	0.0507
718	0.0507
719	0.05049
720	0.05059
721	0.05049
722	0.05049
723	0.05049
724	0.05049
725	0.05038
726	0.05038
727	0.05038
728	0.05028
729	0.05038
730	0.05038
731	0.05038
732	0.05049
733	0.0507
734	0.05091
735	0.05091
736	0.05102
737	0.05123
738	0.05102
739	0.05133
740	0.05133
741	0.05112
742	0.05112
743	0.05123
744	0.05112
745	0.05091
746	0.05059
747	0.05049
748	0.05038
749	0.05006
750	0.04975
751	0.04985
752	0.04922
753	0.04911
754	0.04911
755	0.04879
756	0.04901
757	0.04848
758	0.04816
759	0.04805
760	0.04784
761	0.04805
762	0.04784
763	0.04795
764	0.04795
765	0.04773
766	0.04784
767	0.04752
768	0.04763
769	0.04752
770	0.04773
771	0.04721
772	0.04699
773	0.04731
774	0.04689
775	0.04699
776	0.0471
777	0.04689
778	0.0471
779	0.04689
780	0.04689
781	0.04657
782	0.04657
783	0.04668
784	0.04668
785	0.04636
786	0.04625
787	0.04625
788	0.04604
789	0.04604
790	0.04625
791	0.04594
792	0.04594
793	0.04562
794	0.04562
795	0.04594
796	0.04541
797	0.04551
798	0.04562
799	0.04519
800	0.04551