File: conjugated_ECPs/uv_vis_automated/initial_experimental_data_batch1/metadata/A4-90-B3-10-Red.txt
Wavelength (nm)	Absorbance
350	0.29154
351	0.29135
352	0.29213
353	0.294
354	0.29469
355	0.29577
356	0.29744
357	0.29892
358	0.29961
359	0.30256
360	0.30285
361	0.30452
362	0.30669
363	0.30836
364	0.31062
365	0.31229
366	0.31396
367	0.3176
368	0.31898
369	0.32439
370	0.32724
371	0.33078
372	0.33451
373	0.33707
374	0.34258
375	0.34405
376	0.34769
377	0.34975
378	0.35211
379	0.35447
380	0.35801
381	0.35959
382	0.36293
383	0.36598
384	0.3704
385	0.37198
386	0.37414
387	0.37896
388	0.38427
389	0.39076
390	0.39499
391	0.39735
392	0.40354
393	0.40826
394	0.41278
395	0.41554
396	0.42124
397	0.4237
398	0.42812
399	0.42999
400	0.4355
401	0.44356
402	0.44749
403	0.45143
404	0.45457
405	0.4587
406	0.46175
407	0.46431
408	0.46873
409	0.47424
410	0.47729
411	0.48378
412	0.48869
413	0.49381
414	0.50108
415	0.50787
416	0.51445
417	0.52006
418	0.52557
419	0.53215
420	0.541
421	0.54582
422	0.55113
423	0.55723
424	0.56185
425	0.56814
426	0.5706
427	0.57719
428	0.58279
429	0.58781
430	0.59833
431	0.59912
432	0.61101
433	0.61583
434	0.62419
435	0.63058
436	0.64051
437	0.65221
438	0.66067
439	0.66765
440	0.6767
441	0.68574
442	0.69459
443	0.69715
444	0.70836
445	0.71662
446	0.7233
447	0.72694
448	0.73894
449	0.74592
450	0.75074
451	0.76096
452	0.76323
453	0.77207
454	0.77935
455	0.77984
456	0.79145
457	0.79282
458	0.80039
459	0.80757
460	0.80964
461	0.81721
462	0.82183
463	0.82842
464	0.83314
465	0.84149
466	0.84985
467	0.85585
468	0.86205
469	0.86971
470	0.8767
471	0.88289
472	0.88604
473	0.89577
474	0.90285
475	0.91013
476	0.91524
477	0.92399
478	0.93137
479	0.93736
480	0.94582
481	0.95005
482	0.95388
483	0.95801
484	0.96136
485	0.96519
486	0.96657
487	0.9704
488	0.97188
489	0.97463
490	0.9765
491	0.97896
492	0.9825
493	0.98604
494	0.98515
495	0.98653
496	0.9885
497	0.99125
498	0.99007
499	0.99233
500	0.99302
501	0.99538
502	0.99725
503	0.99774
504	0.99902
505	1
506	0.99912
507	0.99902
508	0.99941
509	0.99931
510	0.99803
511	0.99971
512	0.99685
513	0.99587
514	0.99381
515	0.99154
516	0.98879
517	0.98574
518	0.98368
519	0.98083
520	0.97758
521	0.97335
522	0.96932
523	0.96303
524	0.95801
525	0.9528
526	0.94494
527	0.93972
528	0.9355
529	0.9294
530	0.92527
531	0.91672
532	0.90846
533	0.90167
534	0.8882
535	0.88417
536	0.87158
537	0.86273
538	0.85084
539	0.85093
540	0.83255
541	0.82183
542	0.81042
543	0.80472
544	0.79312
545	0.78309
546	0.77188
547	0.75939
548	0.75811
549	0.7414
550	0.72409
551	0.71082
552	0.70531
553	0.69577
554	0.67955
555	0.67345
556	0.6645
557	0.65005
558	0.63894
559	0.6234
560	0.6119
561	0.60541
562	0.58938
563	0.57915
564	0.56785
565	0.55811
566	0.54828
567	0.53658
568	0.52262
569	0.5115
570	0.49931
571	0.48909
572	0.47886
573	0.46568
574	0.45261
575	0.43864
576	0.42537
577	0.41672
578	0.40472
579	0.39351
580	0.37788
581	0.36293
582	0.35251
583	0.3351
584	0.31613
585	0.31475
586	0.29567
587	0.28073
588	0.27237
589	0.25978
590	0.25074
591	0.23717
592	0.2235
593	0.20531
594	0.20462
595	0.18909
596	0.17925
597	0.16863
598	0.15919
599	0.15143
600	0.14454
601	0.1353
602	0.1296
603	0.11957
604	0.1116
605	0.1059
606	0.10147
607	0.09725
608	0.09292
609	0.08928
610	0.08555
611	0.08151
612	0.07856
613	0.0765
614	0.07345
615	0.07129
616	0.06912
617	0.06755
618	0.06549
619	0.06342
620	0.06254
621	0.06116
622	0.06028
623	0.05959
624	0.0586
625	0.05801
626	0.05703
627	0.05674
628	0.05615
629	0.05624
630	0.05565
631	0.05506
632	0.05497
633	0.05428
634	0.05428
635	0.05398
636	0.05359
637	0.05359
638	0.05329
639	0.053
640	0.053
641	0.0527
642	0.05251
643	0.05231
644	0.05211
645	0.05182
646	0.05211
647	0.05172
648	0.05133
649	0.05123
650	0.05123
651	0.05113
652	0.05074
653	0.05064
654	0.05084
655	0.05054
656	0.05044
657	0.05044
658	0.05034
659	0.05015
660	0.04995
661	0.05015
662	0.04975
663	0.04995
664	0.04995
665	0.04975
666	0.05005
667	0.04995
668	0.04966
669	0.04966
670	0.04946
671	0.04956
672	0.04946
673	0.04936
674	0.04926
675	0.04936
676	0.04916
677	0.04907
678	0.04897
679	0.04897
680	0.04897
681	0.04887
682	0.04867
683	0.04897
684	0.04877
685	0.04867
686	0.04857
687	0.04857
688	0.04838
689	0.04857
690	0.04857
691	0.04838
692	0.04818
693	0.04848
694	0.04818
695	0.04808
696	0.04818
697	0.04789
698	0.04779
699	0.04789
700	0.04759
701	0.04779
702	0.04769
703	0.04789
704	0.04759
705	0.0473
706	0.04769
707	0.04769
708	0.04739
709	0.04749
710	0.04759
711	0.04749
712	0.0472
713	0.0472
714	0.0473
715	0.04739
716	0.0471
717	0.0472
718	0.047
719	0.047
720	0.04671
721	0.0471
722	0.0469
723	0.047
724	0.04671
725	0.0469
726	0.0469
727	0.04671
728	0.04661
729	0.04661
730	0.04671
731	0.04641
732	0.04671
733	0.04651
734	0.04621
735	0.0468
736	0.04641
737	0.04641
738	0.04631
739	0.04641
740	0.04631
741	0.04631
742	0.04631
743	0.04621
744	0.04602
745	0.04641
746	0.04661
747	0.04621
748	0.04651
749	0.04602
750	0.04631
751	0.04582
752	0.04602
753	0.04592
754	0.04602
755	0.04631
756	0.04582
757	0.04582
758	0.04592
759	0.04602
760	0.04651
761	0.04562
762	0.04612
763	0.04612
764	0.04661
765	0.04612
766	0.04612
767	0.04621
768	0.04631
769	0.04592
770	0.04621
771	0.04582
772	0.04651
773	0.04612
774	0.04602
775	0.04572
776	0.04641
777	0.04592
778	0.04592
779	0.04631
780	0.04602
781	0.04602
782	0.04592
783	0.04612
784	0.04631
785	0.04621
786	0.04641
787	0.04602
788	0.04602
789	0.04651
790	0.04621
791	0.04641
792	0.04651
793	0.04612
794	0.04661
795	0.04651
796	0.04651
797	0.04631
798	0.04641
799	0.04661
800	0.04661