File: conjugated_ECPs/uv_vis_automated/Adv. Mater., 20, 2772-2776, 2008/metadata/Polymer_A.csv
Wavelength (nm),Absorbance
360,0.239653
361,0.24094
362,0.242228
363,0.243515
364,0.244803
365,0.246389
366,0.248191
367,0.249994
368,0.251796
369,0.253598
370,0.255415
371,0.257293
372,0.25917
373,0.261048
374,0.262925
375,0.264803
376,0.26668
377,0.268558
378,0.270435
379,0.272947
380,0.275951
381,0.278955
382,0.28196
383,0.284964
384,0.28814
385,0.292146
386,0.296151
387,0.300157
388,0.304162
389,0.307846
390,0.31085
391,0.313854
392,0.3168583
393,0.319862
394,0.322866
395,0.32587
396,0.329088
397,0.332342
398,0.335596
399,0.338851
400,0.342105
401,0.34536
402,0.349029
403,0.353368
404,0.357708
405,0.362047
406,0.366386
407,0.371611
408,0.377619
409,0.383628
410,0.389413
411,0.39467
412,0.399927
413,0.405184
414,0.410441
415,0.41578
416,0.421121
417,0.426462
418,0.431802
419,0.436993
420,0.441198
421,0.445404
422,0.44961
423,0.453815
424,0.458021
425,0.462728
426,0.467609
427,0.472491
428,0.477372
429,0.481707
430,0.485312
431,0.488917
432,0.492521
433,0.496126
434,0.499731
435,0.503336
436,0.506941
437,0.510546
438,0.514151
439,0.517755
440,0.52081
441,0.523563
442,0.526317
443,0.529071
444,0.531825
445,0.534578
446,0.537036
447,0.538129
448,0.5392212
449,0.540314
450,0.541406
451,0.542498
452,0.542575
453,0.539571
454,0.536567
455,0.533563
456,0.530559
457,0.527555
458,0.524551
459,0.521547
460,0.518543
461,0.515538
462,0.512534
463,0.510091
464,0.508288
465,0.506486
466,0.504683
467,0.502881
468,0.500421
469,0.489907
470,0.479393
471,0.47302
472,0.467012
473,0.461004
474,0.457464
475,0.455061
476,0.452657
477,0.450254
478,0.447851
479,0.444389
480,0.438381
481,0.432372
482,0.42583
483,0.41081
484,0.40807
485,0.405567
486,0.403063
487,0.40056
488,0.398057
489,0.395553
490,0.392024
491,0.387518
492,0.383012
493,0.378506
494,0.374056
495,0.369829
496,0.365602
497,0.361376
498,0.357149
499,0.353829
500,0.353997
501,0.354166
502,0.354335
503,0.354503
504,0.354672
505,0.354841
506,0.355009
507,0.355178
508,0.355347
509,0.355515
510,0.355684
511,0.356825
512,0.358985
513,0.361145
514,0.363305
515,0.365465
516,0.367625
517,0.369785
518,0.371945
519,0.374616
520,0.377957
521,0.381298
522,0.384639
523,0.38798
524,0.391321
525,0.394662
526,0.398556
527,0.402986
528,0.4074163
529,0.411846
530,0.416276
531,0.420706
532,0.425324
533,0.430504
534,0.435685
535,0.440865
536,0.446046
537,0.451211
538,0.456267
539,0.461323
540,0.46638
541,0.471436
542,0.47661
543,0.481993
544,0.487375
545,0.492757
546,0.498139
547,0.503687
548,0.50924
549,0.514793
550,0.520346
551,0.524545
552,0.528659
553,0.532774
554,0.536888
555,0.541002
556,0.547496
557,0.558906
558,0.569135
559,0.575839
560,0.582542
561,0.589246
562,0.595847
563,0.602087
564,0.608328
565,0.614568
566,0.620809
567,0.627554
568,0.634403
569,0.641252
570,0.648008
571,0.654299
572,0.660589
573,0.666879
574,0.673152
575,0.679315
576,0.685477
577,0.69164
578,0.697859
579,0.704528
580,0.711197
581,0.717866
582,0.724512
583,0.73113
584,0.737748
585,0.744366
586,0.75032
587,0.75536
588,0.7604
589,0.76544
590,0.77048
591,0.77552
592,0.783253
593,0.791192
594,0.799131
595,0.804955
596,0.810777
597,0.816599
598,0.822421
599,0.828207
600,0.83397
601,0.839732
602,0.845494
603,0.850913
604,0.856079
605,0.861245
606,0.866412
607,0.8715779
608,0.876704
609,0.881821
610,0.886937
611,0.892054
612,0.897171
613,0.902288
614,0.907404
615,0.912521
616,0.917638
617,0.922619
618,0.927279
619,0.931938
620,0.936597
621,0.941257
622,0.945813
623,0.949867
624,0.95392
625,0.957973
626,0.962026
627,0.966079
628,0.969756
629,0.972597
630,0.975439
631,0.978281
632,0.981123
633,0.983964
634,0.986806
635,0.989648
636,0.990634
637,0.991596
638,0.992558
639,0.99352
640,0.994482
641,0.995444
642,0.996407
643,0.997369
644,0.996574
645,0.995649
646,0.994724
647,0.9938
648,0.992875
649,0.99195
650,0.991025
651,0.9901
652,0.987536
653,0.984736
654,0.981937
655,0.979138
656,0.976339
657,0.973539
658,0.97074
659,0.967231
660,0.963145
661,0.959059
662,0.954972
663,0.950886
664,0.946799
665,0.9426729
666,0.938464
667,0.934254
668,0.930045
669,0.925836
670,0.921627
671,0.916046
672,0.91019
673,0.904335
674,0.89848
675,0.892625
676,0.887161
677,0.883434
678,0.879706
679,0.875978
680,0.872251
681,0.868523
682,0.864795
683,0.861051
684,0.856344
685,0.851638
686,0.846932
687,0.842225
688,0.837519
689,0.832314
690,0.826656
691,0.820999
692,0.815341
693,0.809677
694,0.803969
695,0.798261
696,0.792554
697,0.786801
698,0.780657
699,0.774512
700,0.768367
701,0.762151
702,0.755047
703,0.747942
704,0.740838
705,0.73145
706,0.718812
707,0.709452
708,0.703006
709,0.6956677
710,0.671064
711,0.665755
712,0.660446
713,0.655137
714,0.647242
715,0.636784
716,0.62635
717,0.616283
718,0.606216
719,0.596093
720,0.585912
721,0.57503
722,0.562513
723,0.550381
724,0.538684
725,0.526988
726,0.515267
727,0.503547
728,0.492149
729,0.480884
730,0.469576
731,0.458228
732,0.446879
733,0.43553
734,0.424251
735,0.413486
736,0.402722
737,0.390272
738,0.377709
739,0.366945
740,0.35618
741,0.345038
742,0.333675
743,0.32279
744,0.31355
745,0.30431
746,0.295187
747,0.286696
748,0.278204
749,0.269671
750,0.260779
751,0.251887
752,0.243051
753,0.235204
754,0.227357
755,0.21951
756,0.211931
757,0.204604
758,0.197277
759,0.190091
760,0.18341
761,0.176728
762,0.170046
763,0.163524
764,0.157683
765,0.151842
766,0.146
767,0.140159
768,0.134451
769,0.128776
770,0.123102
771,0.117428
772,0.112204
773,0.107654
774,0.103103
775,0.0985521
776,0.0940013
777,0.0896754
778,0.0859424
779,0.0822094
780,0.0784765
781,0.0747435
782,0.0710105
783,0.0673125
784,0.0642812
785,0.0612498
786,0.0582184
787,0.0551871
788,0.0521557
789,0.0491244
790,0.046093
791,0.0439108
792,0.0420488
793,0.0401868
794,0.0383248
795,0.0364628
796,0.0346008
797,0.0327388
798,0.0308767
799,0.0293475