File: conjugated_ECPs/uv_vis_automated/Adv. Mater., 20, 2772-2776, 2008/metadata/Polymer_B.txt
wavelength	absor
360	0.318458
361	0.319838
362	0.321217
363	0.323935
364	0.327383
365	0.330832
366	0.33428
367	0.337728
368	0.341176
369	0.344625
370	0.348073
371	0.351521
372	0.355327
373	0.360292
374	0.365258
375	0.370223
376	0.375189
377	0.380154
378	0.384219
379	0.386633
380	0.389047
381	0.39146
382	0.393874
383	0.396288
384	0.398702
385	0.401116
386	0.403529
387	0.405943
388	0.416471
389	0.427505
390	0.4336714
391	0.43643
392	0.439189
393	0.441947
394	0.444706
395	0.447465
396	0.450223
397	0.454077
398	0.458905
399	0.463732
400	0.46856
401	0.473387
402	0.47954
403	0.485977
404	0.492414
405	0.497228
406	0.498147
407	0.499067
408	0.499986
409	0.500906
410	0.501826
411	0.502745
412	0.50426
413	0.507708
414	0.511156
415	0.514604
416	0.518053
417	0.519884
418	0.520278
419	0.520672
420	0.521066
421	0.52146
422	0.521855
423	0.522249
424	0.522643
425	0.522596
426	0.521493
427	0.520389
428	0.519286
429	0.518183
430	0.517079
431	0.515619
432	0.513648
433	0.511678
434	0.509707
435	0.507737
436	0.505766
437	0.503796
438	0.501826
439	0.498499
440	0.488844
441	0.479189
442	0.470808
443	0.4627
444	0.454593
445	0.448215
446	0.442141
447	0.436067
448	0.429992
449	0.423918
450	0.415191
451	0.406206
452	0.397222
453	0.390401
454	0.385805
455	0.381209
456	0.376613
457	0.372017
458	0.367421
459	0.363544
460	0.359768
461	0.355992
462	0.352216
463	0.34844
464	0.344663
465	0.340887
466	0.333554
467	0.325854
468	0.318154
469	0.313219
470	0.309412
471	0.305606
472	0.301799
473	0.297993
474	0.294186
475	0.290379
476	0.287634
477	0.284984
478	0.282334
479	0.279684
480	0.277034
481	0.274384
482	0.271734
483	0.269084
484	0.267878
485	0.266788
486	0.2656975
487	0.264607
488	0.263517
489	0.262426
490	0.261336
491	0.260245
492	0.259155
493	0.259303
494	0.259482
495	0.25966
496	0.259839
497	0.260018
498	0.260197
499	0.260376
500	0.260554
501	0.261187
502	0.26268
503	0.264173
504	0.265667
505	0.26716
506	0.268653
507	0.270147
508	0.27164
509	0.273133
510	0.275124
511	0.277513
512	0.279903
513	0.282292
514	0.284682
515	0.287072
516	0.289461
517	0.291851
518	0.29435
519	0.297408
520	0.300467
521	0.3035255
522	0.306584
523	0.309643
524	0.312701
525	0.31576
526	0.318783
527	0.321542
528	0.3243
529	0.327059
530	0.329817
531	0.332576
532	0.335335
533	0.338093
534	0.340852
535	0.34524
536	0.349845
537	0.354451
538	0.359056
539	0.363661
540	0.368267
541	0.372198
542	0.375948
543	0.379698
544	0.383448
545	0.387198
546	0.390948
547	0.394786
548	0.39876
549	0.402734
550	0.406708
551	0.410681
552	0.414655
553	0.418864
554	0.423424
555	0.427984
556	0.432545
557	0.437105
558	0.441665
559	0.445952
560	0.450175
561	0.454397
562	0.45862
563	0.462842
564	0.467117
565	0.471589
566	0.47606
567	0.480532
568	0.485003
569	0.489485
570	0.494543
571	0.4996
572	0.504658
573	0.509715
574	0.514607
575	0.518923
576	0.52324
577	0.527556
578	0.531873
579	0.536189
580	0.54055
581	0.545703
582	0.550855
583	0.556008
584	0.56116
585	0.56648
586	0.572014
587	0.577549
588	0.583084
589	0.588619
590	0.59402
591	0.599001
592	0.603982
593	0.608963
594	0.613944
595	0.61888
596	0.623761
597	0.628641
598	0.633522
599	0.638402
600	0.643328
601	0.648385
602	0.653443
603	0.6585
604	0.663558
605	0.668617
606	0.673713
607	0.678809
608	0.683905
609	0.689
610	0.693968
611	0.698576
612	0.703183
613	0.707791
614	0.712399
615	0.717002
616	0.721544
617	0.726085
618	0.730627
619	0.735168
620	0.739709
621	0.744287
622	0.748906
623	0.753524
624	0.758143
625	0.762761
626	0.76738
627	0.771734
628	0.775803
629	0.779872
630	0.783941
631	0.78801
632	0.792079
633	0.796154
634	0.800236
635	0.804317
636	0.808399
637	0.81248
638	0.816562
639	0.820971
640	0.825418
641	0.829866
642	0.834313
643	0.838761
644	0.8432
645	0.84762
646	0.852039
647	0.856458
648	0.860878
649	0.865297
650	0.868784
651	0.871882
652	0.87498
653	0.878077
654	0.881175
655	0.884273
656	0.887371
657	0.893677
658	0.901101
659	0.908524
660	0.915947
661	0.920612
662	0.925029
663	0.929447
664	0.933864
665	0.938281
666	0.942399
667	0.946402
668	0.950405
669	0.954408
670	0.958412
671	0.962415
672	0.965887
673	0.969162
674	0.972437
675	0.975712
676	0.978987
677	0.982262
678	0.985537
679	0.98851
680	0.989593
681	0.990676
682	0.991759
683	0.992842
684	0.993925
685	0.995008
686	0.996091
687	0.997174
688	0.997331
689	0.995747
690	0.994162
691	0.992578
692	0.990994
693	0.98941
694	0.987826
695	0.986242
696	0.983814
697	0.97986
698	0.975906
699	0.971952
700	0.967998
701	0.964044
702	0.959466
703	0.953787
704	0.948109
705	0.942431
706	0.935864
707	0.92776
708	0.919657
709	0.911587
710	0.903683
711	0.895778
712	0.887902
713	0.880535
714	0.873167
715	0.8658
716	0.855717
717	0.844855
718	0.835114
719	0.827207
720	0.819299
721	0.811383
722	0.802757
723	0.794131
724	0.785858
725	0.778144
726	0.77043
727	0.762716
728	0.754835
729	0.746909
730	0.738984
731	0.731349
732	0.724926
733	0.718502
734	0.712078
735	0.705655
736	0.699395
737	0.693381
738	0.687367
739	0.681353
740	0.675331
741	0.669295
742	0.66326
743	0.657224
744	0.651199
745	0.64646
746	0.641721
747	0.636982
748	0.632242
749	0.627503
750	0.623185
751	0.618962
752	0.61474
753	0.610518
754	0.606295
755	0.602034
756	0.597633
757	0.593232
758	0.588832
759	0.584431
760	0.580019
761	0.575192
762	0.570364
763	0.565537
764	0.560709
765	0.555802
766	0.55063
767	0.545457
768	0.540285
769	0.535112
770	0.529644
771	0.523792
772	0.517941
773	0.512089
774	0.506183
775	0.49898
776	0.491777
777	0.484574
778	0.476972
779	0.468873
780	0.460774
781	0.452521
782	0.443951
783	0.43538
784	0.426815
785	0.418345
786	0.409875
787	0.401405
788	0.392974
789	0.384547
790	0.376119
791	0.367822
792	0.359592
793	0.351362
794	0.342952
795	0.334449
796	0.325946
797	0.317878
798	0.310236
799	0.302595