File: conjugated_ECPs/uv_vis_automated/Adv. Optical Mater. 6, 1800594, 2018/metadata/ECP-orange.txt
Wavelength (nm),Absorbance
320,0.263522
321,0.261732
322,0.260463
323,0.259195
324,0.257926
325,0.256658
326,0.255397
327,0.25434
328,0.253283
329,0.252226
330,0.251168
331,0.250111
332,0.249054
333,0.25166
334,0.254832
335,0.258003
336,0.259404
337,0.26031
338,0.261216
339,0.262122
340,0.263028
341,0.263934
342,0.26484
343,0.266698
344,0.269235
345,0.271772
346,0.274309
347,0.276846
348,0.279943
349,0.283749
350,0.287554
351,0.29136
352,0.295165
353,0.299018
354,0.302982
355,0.306946
356,0.31091
357,0.314726
358,0.317897
359,0.321068
360,0.324239
361,0.32741
362,0.330611
363,0.334416
364,0.338222
365,0.342027
366,0.345833
367,0.349638
368,0.354304
369,0.359061
370,0.363818
371,0.368575
372,0.37375
373,0.379035
374,0.384321
375,0.391474
376,0.399402
377,0.406299
378,0.412641
379,0.418984
380,0.425326
381,0.430817
382,0.435573
383,0.44033
384,0.445087
385,0.450516
386,0.456859
387,0.463201
388,0.470261
389,0.478717
390,0.487174
391,0.494891
392,0.50044
393,0.50599
394,0.511539
395,0.517351
396,0.52475
397,0.532149
398,0.539633
399,0.548512
400,0.557391
401,0.566579
402,0.576092
403,0.585606
404,0.594211
405,0.60146
406,0.608708
407,0.615957
408,0.62375
409,0.631678
410,0.638424
411,0.644766
412,0.651109
413,0.659546
414,0.66906
415,0.677296
416,0.684696
417,0.692095
418,0.700592
419,0.710106
420,0.717663
421,0.722948
422,0.728234
423,0.733918
424,0.740261
425,0.746603
426,0.752946
427,0.759288
428,0.76563
429,0.771973
430,0.778505
431,0.785905
432,0.793304
433,0.800503
434,0.805788
435,0.811073
436,0.816361
437,0.821911
438,0.827461
439,0.83301
440,0.83856
441,0.844109
442,0.849659
443,0.855209
444,0.860758
445,0.863946
446,0.866483
447,0.86902
448,0.871557
449,0.874093
450,0.877038
451,0.880209
452,0.88338
453,0.886552
454,0.889443
455,0.892086
456,0.894728
457,0.897371
458,0.900014
459,0.902656
460,0.904918
461,0.906504
462,0.90809
463,0.909675
464,0.910981
465,0.911434
466,0.911887
467,0.91234
468,0.912793
469,0.913247
470,0.9137
471,0.9140375
472,0.912135
473,0.910232
474,0.908329
475,0.906427
476,0.904524
477,0.903197
478,0.901928
479,0.90066
480,0.899391
481,0.898123
482,0.895883
483,0.893346
484,0.890809
485,0.888272
486,0.885735
487,0.882009
488,0.87757
489,0.87313
490,0.86869
491,0.864251
492,0.860424
493,0.857253
494,0.854082
495,0.85091
496,0.846565
497,0.840223
498,0.83388
499,0.827538
500,0.82038
501,0.810867
502,0.801353
503,0.791658
504,0.781087
505,0.770516
506,0.759761
507,0.747076
508,0.734522
509,0.726065
510,0.717609
511,0.709152
512,0.701839
513,0.69459
514,0.687342
515,0.680408
516,0.674065
517,0.667723
518,0.644147
519,0.632805
520,0.627255
521,0.621706
522,0.616156
523,0.60809
524,0.598576
525,0.5890625
526,0.58013
527,0.571674
528,0.563217
529,0.552793
530,0.540109
531,0.527424
532,0.514739
533,0.499821
534,0.489298
535,0.480418
536,0.469674
537,0.455334
538,0.445821
539,0.436307
540,0.407473
541,0.399545
542,0.391152
543,0.378467
544,0.365391
545,0.343336
546,0.332236
547,0.321137
548,0.310038
549,0.287167
550,0.261957
551,0.235504
552,0.225357
553,0.215209
554,0.207223
555,0.199823
556,0.192424
557,0.179832
558,0.164359
559,0.145332
560,0.132826
561,0.12437
562,0.115913
563,0.107457
564,0.099
565,0.0905435
566,0.0838837
567,0.079444
568,0.0750043
569,0.0705647
570,0.066125
571,0.0607799
572,0.0533804
573,0.045981
574,0.0396565
575,0.0371196
576,0.0345826
577,0.0320457
578,0.0295087
579,0.0269212
580,0.02375
581,0.0205788
582,0.0174076
583,0.0142364
584,0.0129043
585,0.0116359
586,0.0103674
587,0.00909891
588,0.00783043
589,0.0076087
590,0.0076087
591,0.0076087
592,0.0076087
593,0.0076087
594,0.0076087
595,0.0076087
596,0.0076087
597,0.0076087
598,0.0076087
599,0.0076087
600,0.0076087
601,0.0076087
602,0.0076087
603,0.0076087
604,0.0076087
605,0.00743983
606,0.0069868
607,0.00653377
608,0.00608075
609,0.00562772
610,0.00517469
611,0.00472166
612,0.00442702
613,0.00488005
614,0.00533307
615,0.0057861
616,0.00623913
617,0.00669216
618,0.00714519
619,0.00759821
620,0.0076087
621,0.0076087
622,0.0076087
623,0.0076087
624,0.0076087
625,0.0076087
626,0.0076087
627,0.0076087
628,0.00790625
629,0.00830265
630,0.00869905
631,0.00909545
632,0.00949185
633,0.00988825
634,0.0102846
635,0.010681
636,0.0108696
637,0.0108696
638,0.0108696
639,0.0108696
640,0.0108696
641,0.0108696
642,0.0108696
643,0.0108696
644,0.0108696
645,0.0108696
646,0.0108696
647,0.0108696
648,0.0108696
649,0.0108696
650,0.0108696
651,0.0108696
652,0.0108696
653,0.0108696
654,0.0108696
655,0.0108696
656,0.0108696
657,0.0108696
658,0.0108696
659,0.0108696
660,0.0108696
661,0.0108696
662,0.0108696
663,0.0108696
664,0.0108696
665,0.0108696
666,0.0108696
667,0.0106747
668,0.0103864
669,0.0100981
670,0.00980978
671,0.00952149
672,0.0092332
673,0.00894491
674,0.00865662
675,0.00836833
676,0.00808004
677,0.00779175
678,0.0076087
679,0.0076087
680,0.0076087
681,0.0076087
682,0.0076087
683,0.0076087
684,0.0076087
685,0.0076087
686,0.0076087
687,0.0076087
688,0.0076087
689,0.0076087
690,0.0076087
691,0.0076087
692,0.0076087
693,0.0076087
694,0.00794022
695,0.00829257
696,0.00864493
697,0.00899728
698,0.00934964
699,0.00970199
700,0.0100543
701,0.0104067
702,0.0107591
703,0.00869293
704,0.00552174
705,0.00235054
706,0.00108696
707,0.00108696
708,0.00108696
709,0.00108696
710,0.00130823
711,0.00176126
712,0.00221429
713,0.00266731
714,0.00312034
715,0.00357337
716,0.0040264
717,0.00455254
718,0.00525725
719,0.00596196
720,0.00666667
721,0.00737138
722,0.00807609
723,0.0087808
724,0.00948551
725,0.0101902
726,0.0108696
727,0.0108696
728,0.0108696
729,0.0108696
730,0.0108696
731,0.0108696
732,0.0108696
733,0.0108696
734,0.0108696
735,0.0108696
736,0.0108696
737,0.0108696
738,0.0108696
739,0.0108696
740,0.0108696
741,0.0108696
742,0.0108696
743,0.0108696
744,0.0108696
745,0.0108696
746,0.0108696
747,0.0108696
748,0.0108696
749,0.0108696
750,0.0107337
751,0.0103813
752,0.010029
753,0.00967663
754,0.00932428
755,0.00897192
756,0.00861957
757,0.00826721
758,0.00791486
759,0.00765489
760,0.00800725
761,0.0083596
762,0.00871196
763,0.00906431
764,0.00941667
765,0.00976902
766,0.0101214
767,0.0104737
768,0.0108261
769,0.0108696
770,0.0108696
771,0.0108696
772,0.0108696
773,0.0108696
774,0.0108696
775,0.0108696
776,0.0108696
777,0.0108696
778,0.0108696
779,0.0108696
780,0.0107316
781,0.0104877
782,0.0102437
783,0.00999979
784,0.00975585
785,0.00951191
786,0.00926798
787,0.00902404
788,0.0087801
789,0.00853616
790,0.00829222
791,0.00804829
792,0.00780435
793,0.00781793
794,0.008875
795,0.00993207
796,0.0108696
797,0.0108696
798,0.0108696
799,0.0108696