File: conjugated_ECPs/uv_vis_automated/Adv. Optical Mater. 6, 1800594, 2018/metadata/ECP-cyan.csv
Wavelength (nm),Absorbance
320,0.318222
321,0.318848
322,0.319473
323,0.320098
324,0.320457
325,0.319206
326,0.317956
327,0.316705
328,0.315454
329,0.314038
330,0.310286
331,0.306533
332,0.302781
333,0.299029
334,0.295276
335,0.291111
336,0.286942
337,0.282772
338,0.280571
339,0.278487
340,0.276402
341,0.274317
342,0.272233
343,0.270148
344,0.270375
345,0.271
346,0.271625
347,0.272251
348,0.272876
349,0.274095
350,0.275485
351,0.276875
352,0.278265
353,0.279654
354,0.281044
355,0.282434
356,0.283824
357,0.285213
358,0.287214
359,0.28956
360,0.291905
361,0.29425
362,0.298133
363,0.303137
364,0.30814
365,0.313143
366,0.318146
367,0.324563
368,0.332381
369,0.33946
370,0.345714
371,0.351968
372,0.358222
373,0.363619
374,0.367788
375,0.371958
376,0.377651
377,0.385989
378,0.394328
379,0.4015
380,0.40619
381,0.410881
382,0.415571
383,0.421206
384,0.429545
385,0.437884
386,0.445111
387,0.448238
388,0.451365
389,0.454492
390,0.458095
391,0.464349
392,0.470603
393,0.476857
394,0.482968
395,0.487659
396,0.492349
397,0.49704
398,0.501706
399,0.505615
400,0.509524
401,0.513433
402,0.517341
403,0.519734
404,0.522079
405,0.524425
406,0.52677
407,0.52739
408,0.527837
409,0.528283
410,0.52873
411,0.529177
412,0.529624
413,0.53007
414,0.526815
415,0.522646
416,0.518476
417,0.516041
418,0.514165
419,0.512289
420,0.510413
421,0.508537
422,0.505278
423,0.501369
424,0.49746
425,0.493552
426,0.487222
427,0.479405
428,0.471894
429,0.464598
430,0.457302
431,0.448873
432,0.437841
433,0.425333
434,0.409714
435,0.396481
436,0.389185
437,0.381889
438,0.375048
439,0.368794
440,0.36254
441,0.354452
442,0.343508
443,0.335005
444,0.330836
445,0.326667
446,0.315937
447,0.295135
448,0.28419
449,0.275349
450,0.272222
451,0.269095
452,0.265968
453,0.262841
454,0.259714
455,0.256217
456,0.251005
457,0.245794
458,0.241063
459,0.2395
460,0.237937
461,0.236373
462,0.234698
463,0.231571
464,0.228444
465,0.225317
466,0.22219
467,0.219063
468,0.217803
469,0.216552
470,0.215302
471,0.214051
472,0.2128
473,0.212411
474,0.212098
475,0.211786
476,0.211473
477,0.21116
478,0.210848
479,0.210535
480,0.210222
481,0.20991
482,0.209597
483,0.209524
484,0.209524
485,0.209524
486,0.209524
487,0.209524
488,0.209524
489,0.209524
490,0.210556
491,0.212119
492,0.213683
493,0.215246
494,0.21681
495,0.218373
496,0.220159
497,0.222113
498,0.224067
499,0.226022
500,0.227976
501,0.229931
502,0.231885
503,0.233839
504,0.235719
505,0.237506
506,0.239293
507,0.241079
508,0.242866
509,0.244653
510,0.24644
511,0.248683
512,0.25181
513,0.254937
514,0.258063
515,0.260705
516,0.262095
517,0.263485
518,0.264875
519,0.266265
520,0.267654
521,0.269044
522,0.270434
523,0.271824
524,0.274794
525,0.286054
526,0.288735
527,0.291415
528,0.294095
529,0.296776
530,0.299456
531,0.302136
532,0.30481
533,0.307155
534,0.3095
535,0.311845
536,0.31419
537,0.323286
538,0.332667
539,0.334786
540,0.336349
541,0.337913
542,0.339476
543,0.34104
544,0.342603
545,0.345476
546,0.348603
547,0.35173
548,0.354857
549,0.359603
550,0.364815
551,0.370026
552,0.373714
553,0.376841
554,0.379968
555,0.383095
556,0.386222
557,0.389349
558,0.392476
559,0.396384
560,0.400762
561,0.40514
562,0.409517
563,0.413895
564,0.420444
565,0.428783
566,0.437122
567,0.444413
568,0.450667
569,0.456921
570,0.462603
571,0.467606
572,0.47261
573,0.477613
574,0.482616
575,0.486905
576,0.490032
577,0.493159
578,0.496286
579,0.499413
580,0.50254
581,0.506571
582,0.512825
583,0.519079
584,0.525333
585,0.531766
586,0.538802
587,0.545837
588,0.552873
589,0.559778
590,0.566032
591,0.572286
592,0.57854
593,0.58446
594,0.587587
595,0.590714
596,0.593841
597,0.596968
598,0.600286
599,0.609667
600,0.619048
601,0.628429
602,0.63781
603,0.64719
604,0.656571
605,0.660813
606,0.664722
607,0.668631
608,0.67254
609,0.679194
610,0.68623
611,0.693266
612,0.700302
613,0.71181
614,0.724317
615,0.732725
616,0.740021
617,0.747317
618,0.752972
619,0.758054
620,0.763135
621,0.768216
622,0.774361
623,0.781006
624,0.787651
625,0.794296
626,0.799246
627,0.803155
628,0.807063
629,0.810972
630,0.815608
631,0.82082
632,0.826032
633,0.831243
634,0.836455
635,0.841667
636,0.84627
637,0.850179
638,0.854087
639,0.857996
640,0.862646
641,0.868378
642,0.874111
643,0.879844
644,0.885577
645,0.89131
646,0.897452
647,0.904488
648,0.911524
649,0.91856
650,0.924603
651,0.92773
652,0.930857
653,0.933984
654,0.937513
655,0.942725
656,0.947937
657,0.952973
658,0.956993
659,0.961014
660,0.965034
661,0.969054
662,0.973075
663,0.977095
664,0.981037
665,0.983122
666,0.985206
667,0.987291
668,0.989376
669,0.99146
670,0.993545
671,0.995135
672,0.996698
673,0.998262
674,0.999825
675,1.00139
676,1.00295
677,1.00452
678,1.00608
679,1.00764
680,1.00921
681,1.01077
682,1.01233
683,1.0139
684,1.01546
685,1.01472
686,1.01316
687,1.0116
688,1.01003
689,1.00802
690,1.00578
691,1.00355
692,1.00132
693,0.999082
694,0.996848
695,0.994615
696,0.99254
697,0.990585
698,0.988631
699,0.986677
700,0.984722
701,0.982768
702,0.980813
703,0.978859
704,0.97666
705,0.974159
706,0.971657
707,0.969156
708,0.966654
709,0.962994
710,0.957365
711,0.951737
712,0.946108
713,0.940479
714,0.935127
715,0.930437
716,0.925746
717,0.921056
718,0.91673
719,0.913603
720,0.910476
721,0.907349
722,0.903503
723,0.896206
724,0.88891
725,0.881746
726,0.875492
727,0.869313
728,0.863841
729,0.858369
730,0.852897
731,0.847397
732,0.841143
733,0.834905
734,0.831778
735,0.828651
736,0.822476
737,0.816222
738,0.809968
739,0.803714
740,0.79746
741,0.791206
742,0.786333
743,0.781643
744,0.775619
745,0.769365
746,0.763111
747,0.756857
748,0.748622
749,0.739867
750,0.731179
751,0.722692
752,0.714204
753,0.705717
754,0.692222
755,0.677513
756,0.66709
757,0.658032
758,0.649693
759,0.641354
760,0.626667
761,0.614095
762,0.605757
763,0.597418
764,0.589365
765,0.581548
766,0.564825
767,0.546095
768,0.533587
769,0.516651
770,0.494762
771,0.477016
772,0.464508
773,0.450714
774,0.438175
775,0.430357
776,0.415111
777,0.393905
778,0.385566
779,0.377228
780,0.364762
781,0.346794
782,0.338455
783,0.330116
784,0.320762
785,0.308254
786,0.295079
787,0.279444
788,0.265397
789,0.258448
790,0.251499
791,0.24455
792,0.237601
793,0.230256
794,0.222662
795,0.215068
796,0.207556
797,0.201302
798,0.195048
799,0.188794