File: conjugated_ECPs/uv_vis_automated/Adv. Optical Mater. 6, 1800594, 2018/metadata/ECP-magenta.txt
Wavelength (nm),Absorbance
400,0.152486
401,0.154447
402,0.156408
403,0.158712
404,0.161244
405,0.163776
406,0.166308
407,0.16884
408,0.171372
409,0.173904
410,0.176436
411,0.178968
412,0.1815
413,0.184033
414,0.186646
415,0.189291
416,0.191935
417,0.19458
418,0.197225
419,0.19987
420,0.202515
421,0.205159
422,0.207804
423,0.210449
424,0.21362
425,0.217525
426,0.221431
427,0.225337
428,0.229243
429,0.233149
430,0.237055
431,0.24096
432,0.244866
433,0.248909
434,0.252997
435,0.257084
436,0.261172
437,0.26526
438,0.269348
439,0.273436
440,0.27757
441,0.282643
442,0.287715
443,0.292788
444,0.297861
445,0.302933
446,0.308006
447,0.313079
448,0.318787
449,0.32463
450,0.330474
451,0.336317
452,0.34216
453,0.348374
454,0.354917
455,0.361461
456,0.368004
457,0.374548
458,0.381091
459,0.387765
460,0.394482
461,0.4012
462,0.407917
463,0.414767
464,0.421803
465,0.428839
466,0.435874
467,0.44291
468,0.449946
469,0.456981
470,0.464058
471,0.471155
472,0.478251
473,0.485348
474,0.492444
475,0.499541
476,0.506836
477,0.514153
478,0.52147
479,0.528787
480,0.536162
481,0.544165
482,0.552168
483,0.560171
484,0.568173
485,0.577147
486,0.586443
487,0.595739
488,0.605034
489,0.61433
490,0.622829
491,0.630372
492,0.637916
493,0.64546
494,0.651983
495,0.657835
496,0.663686
497,0.669538
498,0.675389
499,0.681241
500,0.687092
501,0.692944
502,0.698795
503,0.704647
504,0.708503
505,0.712306
506,0.716108
507,0.719911
508,0.723714
509,0.727516
510,0.731319
511,0.735779
512,0.740457
513,0.745134
514,0.749812
515,0.754489
516,0.759167
517,0.763845
518,0.768522
519,0.775203
520,0.781986
521,0.788769
522,0.795552
523,0.802335
524,0.809608
525,0.817044
526,0.82448
527,0.831915
528,0.83876
529,0.842872
530,0.846984
531,0.851097
532,0.855209
533,0.859321
534,0.863433
535,0.867545
536,0.866291
537,0.862897
538,0.859503
539,0.856109
540,0.852715
541,0.849321
542,0.845927
543,0.842532
544,0.839138
545,0.835744
546,0.83235
547,0.827678
548,0.816269
549,0.804861
550,0.793452
551,0.782044
552,0.77267
553,0.763724
554,0.754778
555,0.745832
556,0.739237
557,0.735058
558,0.73088
559,0.726701
560,0.722523
561,0.718344
562,0.714166
563,0.714748
564,0.718103
565,0.721457
566,0.724812
567,0.728166
568,0.731521
569,0.734875
570,0.73823
571,0.741666
572,0.74597
573,0.750275
574,0.754579
575,0.758884
576,0.763188
577,0.767492
578,0.768523
579,0.767239
580,0.765955
581,0.764671
582,0.763387
583,0.762104
584,0.76082
585,0.759536
586,0.758252
587,0.756968
588,0.746512
589,0.732412
590,0.718311
591,0.704211
592,0.688642
593,0.670701
594,0.653884
595,0.638405
596,0.617659
597,0.592252
598,0.566846
599,0.541397
600,0.515925
601,0.479215
602,0.43132
603,0.410682
604,0.390044
605,0.363935
606,0.336965
607,0.309334
608,0.282917
609,0.259013
610,0.234998
611,0.211544
612,0.192369
613,0.173193
614,0.16081
615,0.149997
616,0.139184
617,0.128208
618,0.117198
619,0.106189
620,0.0951791
621,0.090466
622,0.0859119
623,0.0813577
624,0.0768035
625,0.0722493
626,0.0676952
627,0.063141
628,0.0590667
629,0.0576818
630,0.0562969
631,0.054912
632,0.0535271
633,0.0521421
634,0.0507572
635,0.0493723
636,0.0479874
637,0.0466025
638,0.0452176
639,0.0439891
640,0.0433947
641,0.0428003
642,0.0422059
643,0.0416116
644,0.0410172
645,0.0404228
646,0.0398284
647,0.039234
648,0.0386396
649,0.0380452
650,0.0376464
651,0.0373751
652,0.0371037
653,0.0368324
654,0.036561
655,0.0362897
656,0.0360183
657,0.035747
658,0.0354756
659,0.0352043
660,0.0349334
661,0.0347008
662,0.0344683
663,0.0342357
664,0.0340031
665,0.0337705
666,0.0335379
667,0.0333053
668,0.0330728
669,0.0328402
670,0.0326076
671,0.0324348
672,0.0323443
673,0.0322539
674,0.0321634
675,0.032073
676,0.0319825
677,0.0318921
678,0.0318016
679,0.0317112
680,0.0316207
681,0.0315303
682,0.0314398
683,0.0313494
684,0.0312589
685,0.0311685
686,0.031078
687,0.0309876
688,0.0308971
689,0.0308067
690,0.0307162
691,0.0306258
692,0.0305201
693,0.030365
694,0.03021
695,0.0300549
696,0.0298999
697,0.0297448
698,0.0295898
699,0.0294347
700,0.0292796
701,0.0291246
702,0.0289695
703,0.0289142
704,0.0289142
705,0.0289142
706,0.0289142
707,0.0289142
708,0.0289142
709,0.0289142
710,0.0289142
711,0.0289142
712,0.0289142
713,0.0289142
714,0.0289142
715,0.0289142
716,0.0289142
717,0.0289142
718,0.0289142
719,0.0289142
720,0.0289142
721,0.0289142
722,0.0289142
723,0.0289142
724,0.0289142
725,0.0289142
726,0.0289142
727,0.0289142
728,0.0289142
729,0.0289142
730,0.0289142
731,0.0289142
732,0.0289142
733,0.0289142
734,0.0289142
735,0.0289925
736,0.029083
737,0.0291734
738,0.0292639
739,0.0293543
740,0.0294448
741,0.0295352
742,0.0296257
743,0.0297161
744,0.0298066
745,0.0299253
746,0.0301191
747,0.0303129
748,0.0305068
749,0.0307006
750,0.0308944
751,0.0310882
752,0.031282
753,0.0314759
754,0.0316697
755,0.0318635
756,0.0319341
757,0.031947
758,0.03196
759,0.0319729
760,0.0319858
761,0.0319987
762,0.0320117
763,0.0320246
764,0.0320375
765,0.0320504
766,0.0320862
767,0.0323576
768,0.0326289
769,0.0329003
770,0.0331716
771,0.033443
772,0.0337143
773,0.0339857
774,0.034257
775,0.0345284
776,0.0347997
777,0.0349429
778,0.0349558
779,0.0349687
780,0.0349816
781,0.0349946
782,0.0350075
783,0.0350204
784,0.0350333
785,0.0350462
786,0.0350592
787,0.0350721
788,0.0351901
789,0.0353193
790,0.0354485
791,0.0355777
792,0.035707
793,0.0358362
794,0.0359654
795,0.0360946
796,0.0362238
797,0.036353
798,0.0364541
799,0.0364928