File: conjugated_ECPs/uv_vis_automated/Adv. Optical Mater. 6, 1800594, 2018/metadata/ECP-green.txt
Wavelength (nm),Absorbance
320,0.248405
321,0.248649
322,0.248649
323,0.248649
324,0.248649
325,0.248091
326,0.247299
327,0.246506
328,0.245714
329,0.243855
330,0.241319
331,0.238783
332,0.236246
333,0.23371
334,0.231384
335,0.22927
336,0.227157
337,0.225043
338,0.22293
339,0.220816
340,0.218892
341,0.217307
342,0.215722
343,0.214136
344,0.212973
345,0.212973
346,0.212973
347,0.212973
348,0.213157
349,0.214214
350,0.21527
351,0.216327
352,0.217384
353,0.218441
354,0.219516
355,0.221101
356,0.222686
357,0.224272
358,0.225857
359,0.227741
360,0.229643
361,0.231545
362,0.233448
363,0.23535
364,0.238303
365,0.241473
366,0.244643
367,0.247814
368,0.250517
369,0.253053
370,0.255589
371,0.258125
372,0.260662
373,0.263592
374,0.266762
375,0.269932
376,0.273103
377,0.276273
378,0.278801
379,0.280703
380,0.282605
381,0.284508
382,0.28641
383,0.289739
384,0.295286
385,0.300834
386,0.306382
387,0.311851
388,0.317135
389,0.322419
390,0.327703
391,0.332986
392,0.33827
393,0.344065
394,0.352519
395,0.360973
396,0.369014
397,0.372976
398,0.376939
399,0.380902
400,0.384865
401,0.407057
402,0.412988
403,0.418536
404,0.424084
405,0.429632
406,0.434478
407,0.439234
408,0.455957
409,0.464632
410,0.470973
411,0.477314
412,0.482076
413,0.486303
414,0.49053
415,0.506973
416,0.519654
417,0.526995
418,0.531222
419,0.535449
420,0.544432
421,0.553264
422,0.558812
423,0.56436
424,0.569908
425,0.574747
426,0.578709
427,0.582672
428,0.586635
429,0.593697
430,0.603568
431,0.607795
432,0.612022
433,0.61597
434,0.619141
435,0.622311
436,0.625481
437,0.628651
438,0.631822
439,0.634992
440,0.638162
441,0.641182
442,0.64245
443,0.643718
444,0.644986
445,0.646254
446,0.647522
447,0.646549
448,0.645492
449,0.644435
450,0.643378
451,0.642322
452,0.641265
453,0.637589
454,0.633362
455,0.629135
456,0.626188
457,0.623652
458,0.621116
459,0.618579
460,0.616043
461,0.6131
462,0.60993
463,0.606759
464,0.603589
465,0.597804
466,0.589878
467,0.583816
468,0.579589
469,0.575362
470,0.570216
471,0.563876
472,0.556714
473,0.548259
474,0.539805
475,0.531014
476,0.521503
477,0.511992
478,0.500892
479,0.487446
480,0.482162
481,0.476878
482,0.471427
483,0.465086
484,0.458746
485,0.45127
486,0.433303
487,0.430132
488,0.426638
489,0.407616
490,0.405038
491,0.402502
492,0.399965
493,0.397429
494,0.394893
495,0.390119
496,0.385046
497,0.379974
498,0.374902
499,0.369829
500,0.368243
501,0.367715
502,0.367186
503,0.366658
504,0.36613
505,0.365601
506,0.365405
507,0.365405
508,0.365405
509,0.365405
510,0.365405
511,0.366017
512,0.367205
513,0.368394
514,0.369583
515,0.370772
516,0.371961
517,0.37315
518,0.374339
519,0.375763
520,0.377665
521,0.379567
522,0.381469
523,0.383371
524,0.385432
525,0.388074
526,0.390716
527,0.393358
528,0.396
529,0.398642
530,0.401227
531,0.403129
532,0.405031
533,0.406934
534,0.408836
535,0.410738
536,0.416146
537,0.421694
538,0.427242
539,0.43279
540,0.438108
541,0.443392
542,0.448676
543,0.453536
544,0.458292
545,0.463047
546,0.467803
547,0.472334
548,0.476772
549,0.48121
550,0.485649
551,0.490087
552,0.493504
553,0.496222
554,0.498939
555,0.501656
556,0.504374
557,0.507091
558,0.509808
559,0.515462
560,0.524973
561,0.534484
562,0.542459
563,0.547743
564,0.553027
565,0.558311
566,0.563595
567,0.568878
568,0.573865
569,0.577828
570,0.581791
571,0.585753
572,0.590454
573,0.599965
574,0.6092
575,0.615541
576,0.621881
577,0.628222
578,0.634562
579,0.640903
580,0.647243
581,0.653584
582,0.659924
583,0.666265
584,0.672605
585,0.678946
586,0.685286
587,0.691627
588,0.697968
589,0.704308
590,0.710649
591,0.716989
592,0.729946
593,0.737268
594,0.740438
595,0.743608
596,0.748692
597,0.755032
598,0.761373
599,0.767714
600,0.774054
601,0.783492
602,0.792484
603,0.797239
604,0.801995
605,0.80675
606,0.811703
607,0.816986
608,0.82227
609,0.828358
610,0.836284
611,0.8438
612,0.850141
613,0.856818
614,0.864743
615,0.871703
616,0.873816
617,0.87593
618,0.878146
619,0.881316
620,0.884486
621,0.887657
622,0.890835
623,0.895591
624,0.900346
625,0.904088
626,0.907786
627,0.911485
628,0.915184
629,0.918882
630,0.922581
631,0.925474
632,0.928192
633,0.930909
634,0.933626
635,0.936344
636,0.939061
637,0.941778
638,0.943749
639,0.945334
640,0.946919
641,0.948504
642,0.950089
643,0.951674
644,0.953259
645,0.954845
646,0.955676
647,0.955676
648,0.955676
649,0.955676
650,0.955676
651,0.956057
652,0.957114
653,0.95817
654,0.959227
655,0.960284
656,0.961341
657,0.961574
658,0.958932
659,0.956291
660,0.953649
661,0.951007
662,0.948365
663,0.945869
664,0.944964
665,0.944058
666,0.943152
667,0.942246
668,0.941341
669,0.940435
670,0.939529
671,0.937996
672,0.936411
673,0.934826
674,0.933241
675,0.931655
676,0.93007
677,0.926618
678,0.922655
679,0.918693
680,0.91473
681,0.910437
682,0.905999
683,0.901561
684,0.897122
685,0.892684
686,0.889589
687,0.887476
688,0.885362
689,0.882173
690,0.877946
691,0.873719
692,0.869259
693,0.864504
694,0.858292
695,0.849838
696,0.841384
697,0.833616
698,0.827276
699,0.820935
700,0.814595
701,0.807516
702,0.798005
703,0.789086
704,0.782746
705,0.776405
706,0.769319
707,0.756638
708,0.744411
709,0.73807
710,0.73173
711,0.725389
712,0.719049
713,0.698596
714,0.681159
715,0.68
716,0.654022
717,0.647059
718,0.642832
719,0.638605
720,0.628324
721,0.6167
722,0.605076
723,0.583157
724,0.570459
725,0.562534
726,0.542746
727,0.527803
728,0.516281
729,0.5036
730,0.494649
731,0.488308
732,0.473373
733,0.458588
734,0.450662
735,0.443486
736,0.431438
737,0.415124
738,0.402443
739,0.393386
740,0.389649
741,0.384893
742,0.378984
743,0.37053
744,0.362076
745,0.351824
746,0.335973
747,0.322119
748,0.316413
749,0.310706
750,0.305
751,0.299294
752,0.293535
753,0.287195
754,0.280854
755,0.274453
756,0.263357
757,0.252261
758,0.245762
759,0.239422
760,0.233081
761,0.226741
762,0.2204
763,0.214059
764,0.207719
765,0.201378
766,0.196141
767,0.191209
768,0.186277
769,0.181346
770,0.176856
771,0.17439
772,0.171924
773,0.169459
774,0.166993
775,0.164274
776,0.161368
777,0.158461
778,0.155555
779,0.152649
780,0.149743
781,0.146375
782,0.142412
783,0.138449
784,0.134486
785,0.131016
786,0.12848
787,0.125944
788,0.123408
789,0.120871
790,0.118627
791,0.117359
792,0.116091
793,0.114823
794,0.113555
795,0.112068
796,0.108897
797,0.105727
798,0.10264
799,0.101281