File: conjugated_ECPs/uv_vis_automated/Adv. Optical Mater. 6, 1800594, 2018/metadata/ECP-yellow.csv
Wavelength (nm),Absorbance
320,0.163451
321,0.162166
322,0.160882
323,0.159597
324,0.158313
325,0.157028
326,0.155744
327,0.154459
328,0.153174
329,0.152271
330,0.152409
331,0.152547
332,0.152686
333,0.152824
334,0.152962
335,0.153101
336,0.153239
337,0.153377
338,0.153515
339,0.153654
340,0.154707
341,0.15674
342,0.158774
343,0.160807
344,0.16284
345,0.164874
346,0.166907
347,0.168941
348,0.170974
349,0.172816
350,0.174603
351,0.17639
352,0.178177
353,0.179964
354,0.181751
355,0.183537
356,0.185244
357,0.18691
358,0.188577
359,0.190243
360,0.19191
361,0.195626
362,0.199635
363,0.203643
364,0.207652
365,0.210951
366,0.21363
367,0.216309
368,0.218987
369,0.221666
370,0.224477
371,0.228459
372,0.232441
373,0.236423
374,0.240404
375,0.244386
376,0.248368
377,0.25235
378,0.256366
379,0.262082
380,0.267798
381,0.273514
382,0.27923
383,0.284946
384,0.290662
385,0.29647
386,0.3026
387,0.30873
388,0.31486
389,0.32099
390,0.32712
391,0.333433
392,0.340729
393,0.348025
394,0.355322
395,0.362618
396,0.369914
397,0.377873
398,0.386914
399,0.395955
400,0.404996
401,0.414467
402,0.424132
403,0.433797
404,0.443553
405,0.45379
406,0.464027
407,0.474264
408,0.48497
409,0.495803
410,0.506636
411,0.517344
412,0.527879
413,0.538414
414,0.54898
415,0.560185
416,0.57139
417,0.582595
418,0.593873
419,0.60545
420,0.617027
421,0.628605
422,0.639046
423,0.649246
424,0.659446
425,0.669896
426,0.680645
427,0.691394
428,0.702143
429,0.712362
430,0.722231
431,0.732101
432,0.741971
433,0.75118
434,0.76017
435,0.76916
436,0.77815
437,0.787053
438,0.795945
439,0.804837
440,0.813662
441,0.821115
442,0.828567
443,0.83602
444,0.843473
445,0.850667
446,0.857008
447,0.863349
448,0.86969
449,0.876031
450,0.882371
451,0.888436
452,0.894169
453,0.899902
454,0.905634
455,0.911367
456,0.915273
457,0.918149
458,0.921026
459,0.923903
460,0.926779
461,0.929656
462,0.932532
463,0.935409
464,0.938285
465,0.941162
466,0.941609
467,0.93989
468,0.938171
469,0.936453
470,0.934734
471,0.933015
472,0.931296
473,0.929578
474,0.927859
475,0.924985
476,0.920231
477,0.915477
478,0.910724
479,0.90597
480,0.901216
481,0.896462
482,0.891579
483,0.88601
484,0.880441
485,0.874872
486,0.869303
487,0.863734
488,0.857571
489,0.850441
490,0.843312
491,0.836182
492,0.829053
493,0.821012
494,0.812274
495,0.803536
496,0.794798
497,0.785409
498,0.773879
499,0.762348
500,0.750817
501,0.740361
502,0.731649
503,0.722938
504,0.706967
505,0.684923
506,0.666238
507,0.648804
508,0.630917
509,0.613602
510,0.601583
511,0.585744
512,0.562495
513,0.540775
514,0.519377
515,0.517619
516,0.471207
517,0.452329
518,0.43287
519,0.412896
520,0.394716
521,0.381091
522,0.361748
523,0.339686
524,0.322092
525,0.305975
526,0.289857
527,0.274223
528,0.258665
529,0.243107
530,0.231028
531,0.219041
532,0.20717
533,0.196538
534,0.185907
535,0.175275
536,0.16549
537,0.158485
538,0.151481
539,0.144477
540,0.137472
541,0.131649
542,0.127467
543,0.123285
544,0.119102
545,0.11492
546,0.110737
547,0.106555
548,0.102373
549,0.0998692
550,0.0980343
551,0.0961995
552,0.0943646
553,0.0925298
554,0.090695
555,0.0888601
556,0.0870253
557,0.0851904
558,0.0833556
559,0.0816348
560,0.0807302
561,0.0798256
562,0.078921
563,0.0780164
564,0.0771118
565,0.0762072
566,0.0753026
567,0.074398
568,0.0734934
569,0.0727512
570,0.0721905
571,0.0716298
572,0.0710692
573,0.0705085
574,0.0699478
575,0.0693871
576,0.0688265
577,0.0682658
578,0.0677051
579,0.0672947
580,0.0669079
581,0.0665212
582,0.0661345
583,0.0657477
584,0.065361
585,0.0649742
586,0.0645875
587,0.0642008
588,0.063814
589,0.0634394
590,0.0631254
591,0.0628113
592,0.0624972
593,0.0621831
594,0.061869
595,0.0615549
596,0.0612408
597,0.0609267
598,0.0606254
599,0.0603693
600,0.0601131
601,0.059857
602,0.0596009
603,0.0593448
604,0.0590887
605,0.0588326
606,0.0585765
607,0.0583204
608,0.0580681
609,0.0581284
610,0.0581887
611,0.058249
612,0.0583093
613,0.0583696
614,0.0584299
615,0.0584902
616,0.0585505
617,0.0586108
618,0.0586711
619,0.0585391
620,0.0581414
621,0.0577436
622,0.0573459
623,0.0569481
624,0.0565503
625,0.0561526
626,0.0557548
627,0.0553891
628,0.0552226
629,0.0550561
630,0.0548895
631,0.054723
632,0.0545565
633,0.05439
634,0.0542235
635,0.054057
636,0.0539683
637,0.0539683
638,0.0539683
639,0.0539683
640,0.0539683
641,0.0539683
642,0.0539683
643,0.0534609
644,0.0520531
645,0.0506453
646,0.0492375
647,0.0478297
648,0.0464219
649,0.0460173
650,0.0476713
651,0.0493253
652,0.0509793
653,0.0526333
654,0.0539236
655,0.0536919
656,0.0534602
657,0.0532285
658,0.0529968
659,0.0527651
660,0.0525334
661,0.0523017
662,0.05207
663,0.0520605
664,0.0520587
665,0.0520569
666,0.0520551
667,0.0520533
668,0.0520515
669,0.0520497
670,0.0520479
671,0.0520461
672,0.051986
673,0.0518568
674,0.0517276
675,0.0515984
676,0.0514691
677,0.0513399
678,0.0512107
679,0.0510815
680,0.0509523
681,0.0508231
682,0.0506939
683,0.0505804
684,0.0504694
685,0.0503585
686,0.0502475
687,0.0501365
688,0.0500255
689,0.0499146
690,0.0498036
691,0.0496926
692,0.0495816
693,0.0494688
694,0.0493471
695,0.0492254
696,0.0491036
697,0.0489819
698,0.0488602
699,0.0487385
700,0.0486168
701,0.0484951
702,0.0483734
703,0.0482517
704,0.048452
705,0.0488036
706,0.0491552
707,0.0495068
708,0.0498584
709,0.05021
710,0.0505616
711,0.0509456
712,0.0513923
713,0.051839
714,0.0522857
715,0.0527324
716,0.0531791
717,0.0536259
718,0.0539683
719,0.0539683
720,0.0539683
721,0.0539683
722,0.0539683
723,0.0539683
724,0.0540794
725,0.0548611
726,0.0556429
727,0.0564246
728,0.0571429
729,0.0571429
730,0.0571429
731,0.0571429
732,0.0571429
733,0.0571429
734,0.0571429
735,0.0571429
736,0.0571429
737,0.0571429
738,0.0571429
739,0.0571429
740,0.0571429
741,0.0571429
742,0.0571429
743,0.0571429
744,0.0571429
745,0.0569048
746,0.0566205
747,0.0563362
748,0.0560519
749,0.0557677
750,0.0554834
751,0.0551991
752,0.0549149
753,0.0546306
754,0.0543463
755,0.054062
756,0.0539683
757,0.0539683
758,0.0539683
759,0.0539683
760,0.0539683
761,0.0542195
762,0.0546427
763,0.0550658
764,0.0554889
765,0.055912
766,0.0563351
767,0.0567582
768,0.0571813
769,0.0575535
770,0.0577214
771,0.0578894
772,0.0580574
773,0.0582254
774,0.0583933
775,0.0585613
776,0.0587293
777,0.0588973
778,0.0590653
779,0.0592332
780,0.0593189
781,0.0593514
782,0.0593839
783,0.0594164
784,0.0594489
785,0.0594814
786,0.0595139
787,0.0595464
788,0.0595788
789,0.0596113
790,0.0596942
791,0.0598282
792,0.0599622
793,0.0600962
794,0.0602303
795,0.0603643
796,0.0604983
797,0.0605104
798,0.0604831
799,0.0604557