File: conjugated_ECPs/uv_vis_automated/J. Mat. Chem C, 3, 3211-3218, 2015/metadata/AcDOT2-EDOT2.txt
Wavelength (nm),Absorbance
360,0.137036
361,0.137319
362,0.137601
363,0.137884
364,0.138335
365,0.139083
366,0.13983
367,0.140577
368,0.141324
369,0.142071
370,0.142818
371,0.143565
372,0.144313
373,0.145356
374,0.147246
375,0.149136
376,0.151025
377,0.152915
378,0.154805
379,0.156695
380,0.158585
381,0.160474
382,0.16205
383,0.163325
384,0.164601
385,0.165876
386,0.167151
387,0.168427
388,0.169702
389,0.170977
390,0.172419
391,0.174864
392,0.17731
393,0.179756
394,0.182201
395,0.184647
396,0.187093
397,0.189539
398,0.191984
399,0.194226
400,0.196164
401,0.198101
402,0.200039
403,0.201977
404,0.203914
405,0.205852
406,0.20779
407,0.210079
408,0.212772
409,0.215464
410,0.218157
411,0.220849
412,0.223542
413,0.226234
414,0.228927
415,0.231721
416,0.234773
417,0.237824
418,0.240875
419,0.243927
420,0.246978
421,0.250029
422,0.253341
423,0.257128
424,0.260914
425,0.2647
426,0.268486
427,0.272272
428,0.276058
429,0.279902
430,0.283837
431,0.287771
432,0.291705
433,0.295639
434,0.299573
435,0.303507
436,0.307589
437,0.313074
438,0.318559
439,0.324043
440,0.329528
441,0.334182
442,0.338667
443,0.343153
444,0.347639
445,0.352125
446,0.356645
447,0.362598
448,0.368552
449,0.374505
450,0.380459
451,0.386412
452,0.392171
453,0.397836
454,0.403501
455,0.409165
456,0.41477
457,0.420251
458,0.425731
459,0.431211
460,0.436692
461,0.442262
462,0.448635
463,0.455007
464,0.46138
465,0.467752
466,0.47481
467,0.48228
468,0.489749
469,0.497219
470,0.504571
471,0.511234
472,0.517898
473,0.524562
474,0.531226
475,0.539028
476,0.547389
477,0.55575
478,0.564112
479,0.570627
480,0.577025
481,0.583423
482,0.589968
483,0.597066
484,0.604165
485,0.611263
486,0.618758
487,0.626684
488,0.634609
489,0.642535
490,0.65071
491,0.65897
492,0.667229
493,0.675489
494,0.683139
495,0.690454
496,0.697768
497,0.705082
498,0.712474
499,0.720252
500,0.728029
501,0.735806
502,0.743584
503,0.751236
504,0.758833
505,0.766429
506,0.773524
507,0.779614
508,0.785705
509,0.791796
510,0.797887
511,0.805
512,0.812485
513,0.819971
514,0.827457
515,0.833758
516,0.839671
517,0.845584
518,0.851497
519,0.857393
520,0.863194
521,0.868995
522,0.874796
523,0.880597
524,0.886398
525,0.891547
526,0.89639
527,0.901233
528,0.906076
529,0.91092
530,0.916032
531,0.921577
532,0.927122
533,0.932667
534,0.938212
535,0.942794
536,0.947357
537,0.951921
538,0.956484
539,0.961047
540,0.965611
541,0.970106
542,0.973056
543,0.976006
544,0.978956
545,0.981906
546,0.984856
547,0.987806
548,0.990755
549,0.993705
550,0.995343
551,0.995767
552,0.996192
553,0.996617
554,0.997041
555,0.997466
556,0.997891
557,0.998315
558,0.99874
559,0.997803
560,0.996747
561,0.99569
562,0.994633
563,0.993576
564,0.992519
565,0.991462
566,0.989501
567,0.987268
568,0.985034
569,0.982801
570,0.980567
571,0.978334
572,0.9761
573,0.973867
574,0.971694
575,0.970859
576,0.970024
577,0.969189
578,0.968354
579,0.967519
580,0.966684
581,0.965849
582,0.964553
583,0.962816
584,0.96108
585,0.959343
586,0.957607
587,0.955601
588,0.953238
589,0.950874
590,0.948511
591,0.946148
592,0.943784
593,0.941421
594,0.936566
595,0.931424
596,0.926282
597,0.921139
598,0.915676
599,0.908731
600,0.901786
601,0.894619
602,0.887326
603,0.880034
604,0.872706
605,0.860551
606,0.848397
607,0.840023
608,0.832426
609,0.82483
610,0.813015
611,0.80086
612,0.789463
613,0.778322
614,0.765449
615,0.751268
616,0.738478
617,0.727843
618,0.717208
619,0.698414
620,0.682647
621,0.670493
622,0.657983
623,0.645221
624,0.632459
625,0.619697
626,0.629634
627,0.612922
628,0.596493
629,0.585351
630,0.57421
631,0.568163
632,0.562857
633,0.557552
634,0.552246
635,0.546941
636,0.541802
637,0.536686
638,0.53157
639,0.526454
640,0.521338
641,0.51727
642,0.513743
643,0.510217
644,0.50669
645,0.501647
646,0.493833
647,0.486019
648,0.476483
649,0.466551
650,0.458776
651,0.451761
652,0.444745
653,0.437729
654,0.42925
655,0.415551
656,0.40277
657,0.393055
658,0.383341
659,0.373601
660,0.359824
661,0.346047
662,0.331593
663,0.316102
664,0.301137
665,0.28664
666,0.271935
667,0.257085
668,0.24471
669,0.234804
670,0.224897
671,0.218466
672,0.213468
673,0.20847
674,0.203472
675,0.198474
676,0.191377
677,0.18395
678,0.176522
679,0.167309
680,0.156891
681,0.146802
682,0.142244
683,0.137687
684,0.133129
685,0.128571
686,0.124013
687,0.119749
688,0.116373
689,0.112996
690,0.10962
691,0.106244
692,0.102868
693,0.0994914
694,0.0963566
695,0.093318
696,0.0902794
697,0.0872408
698,0.0842022
699,0.0811636