File: conjugated_ECPs/uv_vis_automated/J. Mat. Chem C, 3, 3211-3218, 2015/metadata/ProDOT.csv
Wavelength (nm),Absorbance
400,0.119184
401,0.119737
402,0.120289
403,0.120842
404,0.121394
405,0.121947
406,0.122499
407,0.123326
408,0.124465
409,0.125605
410,0.126744
411,0.127884
412,0.129023
413,0.130474
414,0.132087
415,0.1337
416,0.135314
417,0.136927
418,0.13854
419,0.140153
420,0.141766
421,0.143379
422,0.144992
423,0.146421
424,0.147684
425,0.148947
426,0.15021
427,0.151474
428,0.152737
429,0.154
430,0.155263
431,0.156954
432,0.159055
433,0.161156
434,0.163257
435,0.165358
436,0.16746
437,0.169561
438,0.171662
439,0.173726
440,0.175499
441,0.177271
442,0.179044
443,0.180816
444,0.183429
445,0.186526
446,0.189622
447,0.192719
448,0.195816
449,0.198677
450,0.201123
451,0.203569
452,0.206015
453,0.208461
454,0.210907
455,0.213352
456,0.215798
457,0.219171
458,0.223222
459,0.227273
460,0.231324
461,0.235436
462,0.242526
463,0.249616
464,0.252888
465,0.255445
466,0.258001
467,0.260558
468,0.263155
469,0.268967
470,0.27478
471,0.27933
472,0.282976
473,0.286623
474,0.290269
475,0.294301
476,0.298353
477,0.302404
478,0.306456
479,0.310628
480,0.314882
481,0.319136
482,0.32339
483,0.330143
484,0.33698
485,0.344058
486,0.354693
487,0.361192
488,0.365064
489,0.368936
490,0.372809
491,0.377427
492,0.384336
493,0.391244
494,0.398152
495,0.407077
496,0.417206
497,0.426881
498,0.435996
499,0.445112
500,0.454228
501,0.463869
502,0.478655
503,0.491955
504,0.503926
505,0.513042
506,0.522061
507,0.531044
508,0.54171
509,0.553673
510,0.56051
511,0.567347
512,0.573671
513,0.577985
514,0.582299
515,0.586613
516,0.588742
517,0.589608
518,0.590474
519,0.591341
520,0.592207
521,0.5919
522,0.590381
523,0.588861
524,0.587342
525,0.586336
526,0.588588
527,0.590839
528,0.593091
529,0.595343
530,0.597594
531,0.602763
532,0.609113
533,0.615464
534,0.629441
535,0.673978
536,0.691475
537,0.698643
538,0.70581
539,0.729864
540,0.759018
541,0.788396
542,0.798271
543,0.813377
544,0.825101
545,0.833663
546,0.848607
547,0.873295
548,0.889868
549,0.895945
550,0.902022
551,0.906893
552,0.911314
553,0.915734
554,0.915572
555,0.912119
556,0.908665
557,0.904702
558,0.898625
559,0.892799
560,0.887061
561,0.87807
562,0.860904
563,0.846724
564,0.830173
565,0.803116
566,0.768003
567,0.739865
568,0.71981
569,0.68366
570,0.666383
571,0.653016
572,0.63965
573,0.612723
574,0.607702
575,0.602682
576,0.599473
577,0.600124
578,0.600775
579,0.601426
580,0.602077
581,0.604795
582,0.614137
583,0.624169
584,0.634802
585,0.666881
586,0.690511
587,0.723936
588,0.750183
589,0.767599
590,0.783575
591,0.803181
592,0.81925
593,0.842679
594,0.875307
595,0.889956
596,0.929653
597,0.943219
598,0.956386
599,0.962195
600,0.966331
601,0.970468
602,0.974605
603,0.978742
604,0.979728
605,0.980002
606,0.980277
607,0.980551
608,0.980826
609,0.981101
610,0.964076
611,0.936588
612,0.931949
613,0.859372
614,0.803056
615,0.75524
616,0.695304
617,0.635765
618,0.563557
619,0.525943
620,0.470776
621,0.449634
622,0.360518
623,0.309295
624,0.282172
625,0.244797
626,0.218218
627,0.196048
628,0.17941
629,0.146568
630,0.138266
631,0.129965
632,0.121829
633,0.114222
634,0.106614
635,0.100294
636,0.0951768
637,0.0900593
638,0.0849419
639,0.0798245
640,0.074707
641,0.0705845
642,0.0689438
643,0.0673032
644,0.0656625
645,0.0640219
646,0.0623812
647,0.0607237
648,0.0589874
649,0.0572511
650,0.0555147
651,0.0537784
652,0.0521404
653,0.051446
654,0.0507517
655,0.0500574
656,0.0493631
657,0.0486687
658,0.0481186
659,0.0477135
660,0.0473085
661,0.0469034
662,0.0464983
663,0.0460933
664,0.0456882
665,0.0453387
666,0.0450074
667,0.044676
668,0.0443447
669,0.0440134
670,0.0436821
671,0.0433507
672,0.0430194
673,0.0426881
674,0.0423568
675,0.0420441
676,0.0417678
677,0.0414916
678,0.0412154
679,0.0409391
680,0.0409603
681,0.0410296
682,0.0410988
683,0.0411681
684,0.0411765
685,0.0411765
686,0.0411765
687,0.0411765
688,0.0411765
689,0.0408064
690,0.040342
691,0.0398776
692,0.0394131
693,0.0392694
694,0.0395491
695,0.0398288
696,0.0401085
697,0.0403881
698,0.0406678
699,0.0409475
700,0.0410681
701,0.0404707
702,0.0398734
703,0.039276
704,0.0386787
705,0.0380814
706,0.037484
707,0.0368867
708,0.0367388
709,0.0370254
710,0.0373119
711,0.0375984
712,0.0378849
713,0.0381714
714,0.0384579
715,0.0387444
716,0.0390506
717,0.0394304
718,0.0398102
719,0.04019
720,0.0405699
721,0.0409497
722,0.0407861
723,0.0398172
724,0.0388483
725,0.0378794
726,0.0369105
727,0.0359416
728,0.035776
729,0.0358978
730,0.0360196
731,0.0361415
732,0.0362633
733,0.0363851
734,0.0365069
735,0.0366287
736,0.0367506
737,0.0363645
738,0.0359117
739,0.0354589
740,0.0350061
741,0.0345534
742,0.0341006
743,0.0336478
744,0.033195
745,0.0333684
746,0.0335755
747,0.0337827
748,0.0339899
749,0.0341294