File: conjugated_ECPs/uv_vis_automated/J. Mat. Chem C, 3, 3211-3218, 2015/metadata/ProDOT2-EDOT.txt
Wavelength (nm),Absorbance
400,0.123801
401,0.124843
402,0.125885
403,0.126995
404,0.128137
405,0.12928
406,0.130423
407,0.131565
408,0.132708
409,0.133851
410,0.134993
411,0.136275
412,0.137719
413,0.139163
414,0.140607
415,0.142051
416,0.143495
417,0.144939
418,0.146383
419,0.147869
420,0.149476
421,0.151083
422,0.152691
423,0.154298
424,0.155905
425,0.157512
426,0.159119
427,0.160737
428,0.162558
429,0.164378
430,0.166199
431,0.16802
432,0.16984
433,0.171661
434,0.173482
435,0.175302
436,0.177362
437,0.179468
438,0.181573
439,0.183678
440,0.185783
441,0.187889
442,0.189994
443,0.192099
444,0.194566
445,0.19724
446,0.199915
447,0.202589
448,0.205264
449,0.207938
450,0.210612
451,0.213287
452,0.216208
453,0.21946
454,0.222712
455,0.225965
456,0.229217
457,0.232469
458,0.235721
459,0.238973
460,0.242567
461,0.246397
462,0.250226
463,0.254055
464,0.257884
465,0.261713
466,0.265543
467,0.269522
468,0.273522
469,0.277522
470,0.281522
471,0.285523
472,0.289523
473,0.293522
474,0.29752
475,0.301519
476,0.305517
477,0.309516
478,0.313515
479,0.317794
480,0.323245
481,0.328695
482,0.334145
483,0.339595
484,0.345045
485,0.351021
486,0.357012
487,0.363003
488,0.368995
489,0.375228
490,0.381499
491,0.387769
492,0.39404
493,0.40067
494,0.407412
495,0.414155
496,0.420897
497,0.427842
498,0.434891
499,0.441941
500,0.44899
501,0.455233
502,0.461415
503,0.467597
504,0.474686
505,0.482455
506,0.490224
507,0.497743
508,0.504347
509,0.510951
510,0.517554
511,0.52407
512,0.530492
513,0.536913
514,0.543335
515,0.550037
516,0.556831
517,0.563625
518,0.570773
519,0.578461
520,0.586148
521,0.593866
522,0.602333
523,0.610801
524,0.619268
525,0.628186
526,0.637316
527,0.646445
528,0.656351
529,0.666597
530,0.676891
531,0.687705
532,0.69852
533,0.709031
534,0.719486
535,0.729799
536,0.739647
537,0.749495
538,0.759063
539,0.767792
540,0.776521
541,0.785249
542,0.792527
543,0.798463
544,0.8044
545,0.810336
546,0.816146
547,0.819154
548,0.822162
549,0.82517
550,0.828178
551,0.831186
552,0.834194
553,0.835691
554,0.836545
555,0.837399
556,0.838253
557,0.839107
558,0.83996
559,0.840814
560,0.841668
561,0.843468
562,0.846236
563,0.849005
564,0.851774
565,0.854542
566,0.857311
567,0.860592
568,0.866737
569,0.872882
570,0.879026
571,0.885777
572,0.893361
573,0.900945
574,0.908947
575,0.917486
576,0.926026
577,0.934403
578,0.942581
579,0.95076
580,0.958561
581,0.96593
582,0.9733
583,0.980669
584,0.985977
585,0.987685
586,0.989393
587,0.991101
588,0.992808
589,0.994516
590,0.996224
591,0.993779
592,0.989088
593,0.984397
594,0.979706
595,0.975015
596,0.967182
597,0.955118
598,0.943054
599,0.931793
600,0.920715
601,0.903103
602,0.881106
603,0.863583
604,0.84696
605,0.833546
606,0.820131
607,0.800375
608,0.7839
609,0.770992
610,0.755871
611,0.738731
612,0.727141
613,0.715551
614,0.704474
615,0.69387
616,0.683266
617,0.673219
618,0.663658
619,0.654096
620,0.645048
621,0.638381
622,0.631713
623,0.625046
624,0.620288
625,0.617894
626,0.615501
627,0.613107
628,0.610714
629,0.60832
630,0.605926
631,0.603533
632,0.601139
633,0.598845
634,0.597278
635,0.595711
636,0.594144
637,0.592576
638,0.591009
639,0.589442
640,0.587875
641,0.585319
642,0.580295
643,0.575272
644,0.570248
645,0.565224
646,0.559947
647,0.550911
648,0.541875
649,0.531646
650,0.519972
651,0.507659
652,0.492996
653,0.478806
654,0.465143
655,0.44783
656,0.431001
657,0.418169
658,0.405337
659,0.391766
660,0.378146
661,0.363805
662,0.348781
663,0.312836
664,0.303721
665,0.294605
666,0.269348
667,0.251994
668,0.238682
669,0.225725
670,0.21357
671,0.201631
672,0.192628
673,0.183624
674,0.174722
675,0.166935
676,0.159147
677,0.151359
678,0.143959
679,0.136705
680,0.129451
681,0.122196
682,0.116947
683,0.111706
684,0.106465
685,0.101224
686,0.095983
687,0.0922799
688,0.0890287
689,0.0857775
690,0.0825262
691,0.079275
692,0.0760238
693,0.0727725
694,0.0701714
695,0.0678694
696,0.0655674
697,0.0632655
698,0.0609635
699,0.0586615
700,0.0563596
701,0.0540576
702,0.0522727
703,0.0510538
704,0.0498348
705,0.0486158
706,0.0473968
707,0.0461778
708,0.0449588
709,0.0437398
710,0.0425945
711,0.0415891
712,0.0405837
713,0.0395783
714,0.0385729
715,0.0375675
716,0.0365621
717,0.0355567
718,0.0345667
719,0.0338064
720,0.0330461
721,0.0322859
722,0.0315256
723,0.0307653
724,0.0300051
725,0.0292448
726,0.0284845
727,0.0281508
728,0.0279366
729,0.0277225
730,0.0275083
731,0.0272942
732,0.02708
733,0.0268659
734,0.0266517
735,0.0264543
736,0.026266
737,0.0260776
738,0.0258893
739,0.0257009
740,0.0255126
741,0.0253243
742,0.0251359
743,0.0249697
744,0.0248316
745,0.0246935
746,0.0245554
747,0.0244173
748,0.0242791
749,0.024141