File: conjugated_ECPs/uv_vis_automated/J. Mat. Chem C, 3, 3211-3218, 2015/metadata/ProDOT-EDOT.csv
Wavelength (nm),Absorbance
400,0.189017
401,0.190222
402,0.191426
403,0.192631
404,0.193836
405,0.196253
406,0.199114
407,0.201976
408,0.204838
409,0.2077
410,0.210562
411,0.212512
412,0.214285
413,0.216057
414,0.21783
415,0.219602
416,0.221375
417,0.223148
418,0.22492
419,0.226728
420,0.228783
421,0.230838
422,0.232893
423,0.234948
424,0.237003
425,0.239236
426,0.241912
427,0.244588
428,0.247263
429,0.249939
430,0.252615
431,0.25529
432,0.257966
433,0.260642
434,0.263318
435,0.266126
436,0.26894
437,0.271754
438,0.274568
439,0.277382
440,0.280196
441,0.28301
442,0.285824
443,0.289167
444,0.29337
445,0.297574
446,0.301777
447,0.30598
448,0.310071
449,0.31385
450,0.317628
451,0.321406
452,0.325184
453,0.328962
454,0.33274
455,0.336958
456,0.341345
457,0.345732
458,0.350119
459,0.354506
460,0.358893
461,0.36328
462,0.367792
463,0.372657
464,0.377522
465,0.382387
466,0.387252
467,0.392117
468,0.397333
469,0.403544
470,0.409756
471,0.415967
472,0.422144
473,0.42732
474,0.432497
475,0.437674
476,0.44285
477,0.448334
478,0.454984
479,0.461635
480,0.468285
481,0.474936
482,0.480645
483,0.48593
484,0.491215
485,0.496499
486,0.502821
487,0.511177
488,0.519533
489,0.527404
490,0.534641
491,0.541947
492,0.550182
493,0.558417
494,0.566652
495,0.574887
496,0.584257
497,0.593949
498,0.603641
499,0.609485
500,0.615314
501,0.621144
502,0.626974
503,0.633748
504,0.640945
505,0.648142
506,0.655823
507,0.664472
508,0.673121
509,0.68177
510,0.68864
511,0.695467
512,0.702293
513,0.709433
514,0.717536
515,0.725639
516,0.733742
517,0.740983
518,0.748116
519,0.755248
520,0.76238
521,0.769126
522,0.775319
523,0.781512
524,0.787704
525,0.793968
526,0.800607
527,0.807247
528,0.813886
529,0.820797
530,0.828264
531,0.83573
532,0.843196
533,0.848787
534,0.854113
535,0.85944
536,0.864766
537,0.870093
538,0.876291
539,0.882784
540,0.889276
541,0.895769
542,0.901181
543,0.906221
544,0.911261
545,0.916302
546,0.921321
547,0.925879
548,0.930437
549,0.934995
550,0.939553
551,0.944111
552,0.948669
553,0.951121
554,0.953463
555,0.955805
556,0.958147
557,0.960489
558,0.962831
559,0.965172
560,0.967514
561,0.969856
562,0.970831
563,0.97171
564,0.972589
565,0.973468
566,0.974347
567,0.975226
568,0.976106
569,0.977018
570,0.978012
571,0.979006
572,0.980001
573,0.980995
574,0.981989
575,0.982984
576,0.983978
577,0.984972
578,0.985967
579,0.986941
580,0.987709
581,0.988477
582,0.989245
583,0.990014
584,0.990782
585,0.99155
586,0.992318
587,0.993086
588,0.993854
589,0.994623
590,0.99539
591,0.996136
592,0.996882
593,0.997628
594,0.998374
595,0.99912
596,0.999865
597,1.00061
598,1.00136
599,0.99917
600,0.996317
601,0.993464
602,0.990611
603,0.987758
604,0.984905
605,0.982052
606,0.979199
607,0.976346
608,0.97341
609,0.968514
610,0.963619
611,0.958723
612,0.953828
613,0.948932
614,0.942193
615,0.93454
616,0.926887
617,0.919234
618,0.910982
619,0.902391
620,0.893801
621,0.886349
622,0.879601
623,0.872854
624,0.863923
625,0.852291
626,0.840659
627,0.830815
628,0.82305
629,0.815284
630,0.807835
631,0.803088
632,0.79834
633,0.793592
634,0.788844
635,0.784096
636,0.779168
637,0.773091
638,0.767013
639,0.760936
640,0.754859
641,0.748782
642,0.743235
643,0.737955
644,0.732675
645,0.727396
646,0.722116
647,0.715893
648,0.709246
649,0.702599
650,0.695952
651,0.689305
652,0.682658
653,0.675436
654,0.667991
655,0.660547
656,0.653102
657,0.644579
658,0.636045
659,0.627518
660,0.61991
661,0.612302
662,0.604695
663,0.595264
664,0.584846
665,0.574308
666,0.560685
667,0.547495
668,0.53639
669,0.525284
670,0.51487
671,0.504999
672,0.4955
673,0.486384
674,0.474785
675,0.457807
676,0.444226
677,0.430769
678,0.418264
679,0.407503
680,0.396761
681,0.386174
682,0.375587
683,0.365
684,0.353822
685,0.342632
686,0.331442
687,0.321492
688,0.313401
689,0.305398
690,0.298562
691,0.291725
692,0.283087
693,0.265463
694,0.252386
695,0.24519
696,0.237993
697,0.230796
698,0.2236
699,0.218238
700,0.213624
701,0.209009
702,0.204393
703,0.199329
704,0.194265
705,0.1892
706,0.184136
707,0.179868
708,0.176034
709,0.172199
710,0.168364
711,0.16453
712,0.160695
713,0.156861
714,0.152879
715,0.148884
716,0.144889
717,0.140894
718,0.136899
719,0.132903
720,0.129267
721,0.127085
722,0.124903
723,0.122722
724,0.12054
725,0.118359
726,0.116177
727,0.113996
728,0.111814
729,0.109986
730,0.108301
731,0.106617
732,0.104932
733,0.103248
734,0.101564
735,0.0998791
736,0.0981947
737,0.0965838
738,0.0954643
739,0.0943448
740,0.0932253
741,0.0921058
742,0.0909863
743,0.0898668
744,0.0887474
745,0.0876279
746,0.0865084
747,0.085551
748,0.0847203
749,0.0838897