File: conjugated_ECPs/uv_vis_automated/Chem. Mater., 24, 255-268, 2012/metadata/P1.csv
wavelength,absor
360,0.266853
361,0.2683
362,0.270712
363,0.273398
364,0.276084
365,0.279279
366,0.284158
367,0.289037
368,0.293916
369,0.298795
370,0.303674
371,0.308552
372,0.313346
373,0.317012
374,0.320678
375,0.324344
376,0.32801
377,0.331676
378,0.335136
379,0.337901
380,0.340667
381,0.343432
382,0.346197
383,0.348962
384,0.351727
385,0.376878
386,0.381579
387,0.386279
388,0.390979
389,0.395679
390,0.403478
391,0.414065
392,0.424788
393,0.438571
394,0.452355
395,0.458008
396,0.462204
397,0.4664
398,0.470596
399,0.474792
400,0.484825
401,0.495662
402,0.511791
403,0.52792
404,0.51621
405,0.507517
406,0.51755
407,0.527582
408,0.537615
409,0.547647
410,0.55768
411,0.567712
412,0.574854
413,0.581782
414,0.588733
415,0.595683
416,0.602634
417,0.607588
418,0.611349
419,0.615109
420,0.618869
421,0.622629
422,0.62639
423,0.628479
424,0.63009
425,0.631702
426,0.633313
427,0.634925
428,0.636536
429,0.634024
430,0.631201
431,0.628378
432,0.625555
433,0.622732
434,0.619909
435,0.617086
436,0.614262
437,0.611439
438,0.608616
439,0.607494
440,0.609573
441,0.614882
442,0.612193
443,0.60853
444,0.604866
445,0.601202
446,0.596534
447,0.590267
448,0.584
449,0.577733
450,0.560471
451,0.552123
452,0.548094
453,0.544065
454,0.540037
455,0.51394
456,0.507225
457,0.50051
458,0.491942
459,0.482542
460,0.472832
461,0.462549
462,0.435492
463,0.426092
464,0.416691
465,0.408796
466,0.401634
467,0.394471
468,0.387162
469,0.379105
470,0.371047
471,0.365204
472,0.359832
473,0.354461
474,0.349818
475,0.346753
476,0.343689
477,0.340625
478,0.337561
479,0.334496
480,0.331432
481,0.328368
482,0.327973
483,0.328292
484,0.328612
485,0.328931
486,0.331296
487,0.333776
488,0.336256
489,0.338736
490,0.341216
491,0.343469
492,0.345707
493,0.347945
494,0.350183
495,0.352421
496,0.35466
497,0.356898
498,0.361887
499,0.367103
500,0.372319
501,0.377535
502,0.38275
503,0.388046
504,0.393417
505,0.398789
506,0.404161
507,0.409533
508,0.414904
509,0.420276
510,0.425648
511,0.430947
512,0.436182
513,0.441417
514,0.446652
515,0.451888
516,0.457123
517,0.463571
518,0.470496
519,0.47742
520,0.484345
521,0.49127
522,0.497686
523,0.502914
524,0.508143
525,0.513372
526,0.518723
527,0.524094
528,0.529466
529,0.534838
530,0.540327
531,0.54637
532,0.552414
533,0.558457
534,0.5645
535,0.57288
536,0.583623
537,0.594366
538,0.60511
539,0.613199
540,0.621257
541,0.628442
542,0.635157
543,0.642288
544,0.650346
545,0.658403
546,0.666461
547,0.674518
548,0.682576
549,0.691874
550,0.702618
551,0.713361
552,0.724105
553,0.734848
554,0.737126
555,0.737066
556,0.737005
557,0.737653
558,0.743024
559,0.748396
560,0.753768
561,0.75914
562,0.765028
563,0.771688
564,0.778347
565,0.785007
566,0.791666
567,0.798325
568,0.811058
569,0.82583
570,0.83822
571,0.847173
572,0.856126
573,0.865079
574,0.870115
575,0.87472
576,0.879324
577,0.883928
578,0.888533
579,0.893137
580,0.897741
581,0.902346
582,0.905821
583,0.908842
584,0.911864
585,0.914885
586,0.917907
587,0.920929
588,0.92395
589,0.926972
590,0.929993
591,0.93577
592,0.946513
593,0.957257
594,0.968
595,0.971923
596,0.974622
597,0.977322
598,0.980022
599,0.982721
600,0.985421
601,0.98736
602,0.98811
603,0.98886
604,0.98961
605,0.990096
606,0.9898
607,0.989503
608,0.989207
609,0.988911
610,0.988615
611,0.988318
612,0.988022
613,0.987726
614,0.98743
615,0.987133
616,0.986837
617,0.986541
618,0.986245
619,0.985948
620,0.985652
621,0.985356
622,0.985848
623,0.982659
624,0.97947
625,0.976282
626,0.973093
627,0.969905
628,0.966716
629,0.96337
630,0.960013
631,0.956656
632,0.953298
633,0.949209
634,0.942942
635,0.936675
636,0.930408
637,0.922834
638,0.914808
639,0.906781
640,0.898754
641,0.891187
642,0.891418
643,0.891649
644,0.89188
645,0.883621
646,0.867068
647,0.853639
648,0.840335
649,0.829592
650,0.818848
651,0.805254
652,0.790482
653,0.774225
654,0.75756
655,0.749503
656,0.741445
657,0.705681
658,0.698959
659,0.707314
660,0.698922
661,0.671204
662,0.671047
663,0.657618
664,0.644188
665,0.617461
666,0.607613
667,0.597764
668,0.543791
669,0.533047
670,0.522304
671,0.501948
672,0.494785
673,0.487623
674,0.452188
675,0.445026
676,0.437864
677,0.430702
678,0.418482
679,0.405052
680,0.38911
681,0.347186
682,0.321304
683,0.311903
684,0.302503
685,0.342
686,0.31841
687,0.29482
688,0.27123
689,0.219901
690,0.201099
691,0.193678
692,0.186963
693,0.181058
694,0.175686
695,0.170314
696,0.164942
697,0.159571
698,0.151717
699,0.14366
700,0.135946
701,0.128476
702,0.120482
703,0.111702
704,0.107225
705,0.102749
706,0.0982723
707,0.0927801
708,0.0865131
709,0.0802461
710,0.0739267
711,0.0667644
712,0.0596021
713,0.0524398
714,0.0481049
715,0.0460861
716,0.0440673
717,0.0420485
718,0.0400297
719,0.0380108
720,0.035992
721,0.0339732
722,0.0317934
723,0.0295755
724,0.0273576
725,0.0252928
726,0.0236579
727,0.0220231
728,0.0203882
729,0.0187533
730,0.0171184
731,0.0154836
732,0.014421
733,0.0140168
734,0.0136126
735,0.0132084
736,0.0128042
737,0.0124
738,0.0119958
739,0.0115916
740,0.0107554
741,0.00982345
742,0.00889154
743,0.00795963
744,0.00702772
745,0.00609581
746,0.00516389
747,0.00423198
748,0.0035287
749,0.00368408
750,0.00383946
751,0.00399485
752,0.00415023
753,0.00430561
754,0.00446099
755,0.00461637
756,0.00477175
757,0.00492713
758,0.00508251
759,0.00523789
760,0.00539327
761,0.00553758
762,0.00563931
763,0.00574105
764,0.00584279
765,0.00588339
766,0.0058925
767,0.0059016
768,0.00591071
769,0.00591981
770,0.00592892
771,0.00593802
772,0.00594713
773,0.00595623
774,0.00596534
775,0.00597444
776,0.00598354
777,0.00599265
778,0.00600175
779,0.00601086
780,0.00601996
781,0.00602907
782,0.00603817
783,0.00604728
784,0.00605638
785,0.00606549
786,0.00607459
787,0.0060837
788,0.0060928
789,0.00610191
790,0.00611101
791,0.00612011
792,0.00612922
793,0.00613832
794,0.00614743
795,0.00615653
796,0.00616564
797,0.00617474
798,0.00618385
799,0.00619295