File: conjugated_ECPs/uv_vis_automated/Polym. Chem., 2018, 9, 5262-5267/metadata/P1.csv
wavelength,absor
360,0.522174
361,0.528258
362,0.533449
363,0.53864
364,0.543831
365,0.549022
366,0.555449
367,0.562586
368,0.56898
369,0.574377
370,0.579774
371,0.585172
372,0.590803
373,0.5965
374,0.602196
375,0.607892
376,0.613588
377,0.619926
378,0.627085
379,0.634245
380,0.641404
381,0.648498
382,0.65454
383,0.660582
384,0.666623
385,0.674202
386,0.682255
387,0.690308
388,0.698029
389,0.705424
390,0.712818
391,0.720213
392,0.720346
393,0.718809
394,0.717272
395,0.715735
396,0.753352
397,0.762219
398,0.771086
399,0.779872
400,0.787563
401,0.795254
402,0.802945
403,0.810689
404,0.818491
405,0.826294
406,0.835677
407,0.852726
408,0.858611
409,0.864496
410,0.870382
411,0.876304
412,0.88229
413,0.888276
414,0.894261
415,0.900247
416,0.906672
417,0.91399
418,0.921308
419,0.928626
420,0.935549
421,0.940632
422,0.945716
423,0.950799
424,0.955883
425,0.960924
426,0.964344
427,0.967764
428,0.971185
429,0.974605
430,0.978025
431,0.981128
432,0.982737
433,0.984345
434,0.985954
435,0.987563
436,0.989172
437,0.990781
438,0.992389
439,0.992344
440,0.991648
441,0.990953
442,0.990257
443,0.989562
444,0.988866
445,0.98817
446,0.987475
447,0.985908
448,0.982456
449,0.979003
450,0.975551
451,0.972099
452,0.971187
453,0.970418
454,0.96965
455,0.968881
456,0.964519
457,0.958068
458,0.951618
459,0.945263
460,0.939361
461,0.933459
462,0.927558
463,0.921347
464,0.912995
465,0.904642
466,0.89619
467,0.886733
468,0.877276
469,0.867819
470,0.860086
471,0.855711
472,0.851336
473,0.846961
474,0.841997
475,0.830874
476,0.819751
477,0.810253
478,0.802306
479,0.79436
480,0.78671
481,0.779815
482,0.77292
483,0.766025
484,0.760224
485,0.754561
486,0.748899
487,0.743236
488,0.736541
489,0.729651
490,0.722761
491,0.715871
492,0.71313
493,0.7122
494,0.71127
495,0.710339
496,0.702185
497,0.691567
498,0.684022
499,0.679118
500,0.674214
501,0.66931
502,0.664406
503,0.660078
504,0.656662
505,0.653247
506,0.649832
507,0.646417
508,0.643001
509,0.639586
510,0.636147
511,0.631882
512,0.627616
513,0.62335
514,0.621518
515,0.620292
516,0.619066
517,0.617839
518,0.616613
519,0.615387
520,0.614161
521,0.612935
522,0.611782
523,0.61063
524,0.609478
525,0.608326
526,0.607174
527,0.606023
528,0.604871
529,0.603719
530,0.60333
531,0.60396
532,0.604589
533,0.605218
534,0.605847
535,0.606476
536,0.607105
537,0.607944
538,0.609254
539,0.610564
540,0.611874
541,0.613184
542,0.614494
543,0.615804
544,0.617113
545,0.618423
546,0.619724
547,0.620488
548,0.621253
549,0.622017
550,0.622781
551,0.623545
552,0.624309
553,0.625073
554,0.627581
555,0.630202
556,0.632823
557,0.635443
558,0.638064
559,0.640685
560,0.643306
561,0.645927
562,0.648421
563,0.650797
564,0.653172
565,0.655547
566,0.657922
567,0.660298
568,0.662673
569,0.665048
570,0.666672
571,0.66822
572,0.669768
573,0.671315
574,0.672863
575,0.674411
576,0.675959
577,0.677507
578,0.67887
579,0.679844
580,0.680818
581,0.681792
582,0.682767
583,0.683741
584,0.684715
585,0.68569
586,0.686664
587,0.687173
588,0.687289
589,0.687404
590,0.687519
591,0.687634
592,0.68775
593,0.687865
594,0.688106
595,0.688399
596,0.688693
597,0.688986
598,0.68928
599,0.689573
600,0.689866
601,0.69016
602,0.689626
603,0.687878
604,0.686131
605,0.684383
606,0.682636
607,0.680888
608,0.679141
609,0.677393
610,0.675646
611,0.673898
612,0.672039
613,0.669731
614,0.667423
615,0.665114
616,0.662806
617,0.660498
618,0.65819
619,0.655881
620,0.653562
621,0.64984
622,0.646117
623,0.642394
624,0.638671
625,0.634948
626,0.631048
627,0.625849
628,0.62065
629,0.615451
630,0.610252
631,0.605077
632,0.60409
633,0.603104
634,0.602118
635,0.601131
636,0.592599
637,0.583423
638,0.575483
639,0.569887
640,0.564291
641,0.558694
642,0.553098
643,0.547349
644,0.541589
645,0.535829
646,0.530069
647,0.522874
648,0.515488
649,0.508102
650,0.500716
651,0.494379
652,0.489239
653,0.484099
654,0.478959
655,0.473819
656,0.466104
657,0.457643
658,0.449182
659,0.440721
660,0.43313
661,0.426037
662,0.418943
663,0.41185
664,0.404745
665,0.397637
666,0.39053
667,0.382684
668,0.373575
669,0.364465
670,0.355401
671,0.350357
672,0.345312
673,0.340268
674,0.334844
675,0.326068
676,0.317291
677,0.308514
678,0.30051
679,0.292526
680,0.284547
681,0.276746
682,0.268944
683,0.261282
684,0.255091
685,0.2489
686,0.242709
687,0.23787
688,0.233423
689,0.228976
690,0.224529
691,0.220083
692,0.211862
693,0.191444
694,0.186735
695,0.182026
696,0.177317
697,0.172608
698,0.167899
699,0.162424
700,0.156949
701,0.151474
702,0.146
703,0.14062
704,0.135308
705,0.129995
706,0.124683
707,0.119338
708,0.113837
709,0.108335
710,0.102833
711,0.0985477
712,0.0973087
713,0.0960696
714,0.0948306
715,0.0935916
716,0.0901379
717,0.0863037
718,0.0824696
719,0.0786355
720,0.0748014
721,0.071734
722,0.0692818
723,0.0668297
724,0.0643775
725,0.0619253
726,0.0604925
727,0.0605674
728,0.0606423
729,0.0607171
730,0.060792
731,0.0608669
732,0.0609417
733,0.0610166
734,0.0610915
735,0.0611663
736,0.0526306
737,0.0424112
738,0.0413371
739,0.0406862
740,0.0400353
741,0.0393844
742,0.0387335
743,0.0380826
744,0.0374317
745,0.0369335
746,0.036849
747,0.0367646
748,0.0366801
749,0.0365956
750,0.0365112
751,0.0364267
752,0.0363423
753,0.0361863
754,0.0356916
755,0.0351969
756,0.0347022
757,0.0342075
758,0.0337129
759,0.0332182
760,0.0327235
761,0.0322901
762,0.0325676
763,0.0328451
764,0.0331226
765,0.0334001
766,0.0336776
767,0.0339551
768,0.0342326
769,0.0345101
770,0.0343733
771,0.0342298
772,0.0340864
773,0.0339429
774,0.0337995
775,0.033656
776,0.0335126
777,0.0335095
778,0.033858
779,0.0342065
780,0.034555
781,0.0349035
782,0.035252
783,0.0356005
784,0.035949
785,0.0362975
786,0.0366524
787,0.0370135
788,0.0373745
789,0.0377356
790,0.0380967
791,0.0384578
792,0.0388188
793,0.0391799
794,0.0394647
795,0.0396934
796,0.0399221
797,0.0401507
798,0.0403794
799,0.0406081