File: conjugated_ECPs/uv_vis_automated/Polym. Chem., 2018, 9, 5262-5267/metadata/P2.csv
wavelength,absor
360,0.485802
361,0.491054
362,0.494933
363,0.498175
364,0.501417
365,0.504659
366,0.507901
367,0.511143
368,0.514385
369,0.517856
370,0.521474
371,0.525093
372,0.528711
373,0.532495
374,0.536352
375,0.540209
376,0.544066
377,0.547923
378,0.55178
379,0.555615
380,0.55944
381,0.563264
382,0.567088
383,0.570912
384,0.574737
385,0.578561
386,0.58246
387,0.586381
388,0.590302
389,0.594224
390,0.598145
391,0.601654
392,0.604567
393,0.60748
394,0.610394
395,0.613307
396,0.616489
397,0.622234
398,0.627979
399,0.633724
400,0.639469
401,0.645214
402,0.649723
403,0.653321
404,0.656918
405,0.660515
406,0.664112
407,0.667709
408,0.671307
409,0.676101
410,0.681256
411,0.686412
412,0.690041
413,0.693147
414,0.696254
415,0.699361
416,0.702468
417,0.705713
418,0.709676
419,0.713639
420,0.717602
421,0.721566
422,0.725529
423,0.729492
424,0.732227
425,0.733722
426,0.735217
427,0.736713
428,0.738208
429,0.739703
430,0.741198
431,0.742694
432,0.743939
433,0.745181
434,0.746423
435,0.747665
436,0.748907
437,0.750149
438,0.751391
439,0.752633
440,0.753875
441,0.755117
442,0.756358
443,0.756392
444,0.755982
445,0.755572
446,0.755162
447,0.754753
448,0.754343
449,0.753933
450,0.753523
451,0.753078
452,0.752567
453,0.752057
454,0.751546
455,0.751035
456,0.750524
457,0.750014
458,0.749503
459,0.748132
460,0.746032
461,0.743933
462,0.741834
463,0.739734
464,0.737635
465,0.735536
466,0.733436
467,0.731372
468,0.729351
469,0.727331
470,0.72531
471,0.723289
472,0.721269
473,0.719294
474,0.717663
475,0.716033
476,0.714402
477,0.712771
478,0.711141
479,0.70951
480,0.707879
481,0.706249
482,0.704131
483,0.701831
484,0.699531
485,0.697231
486,0.69493
487,0.69263
488,0.69033
489,0.68803
490,0.685849
491,0.685513
492,0.685177
493,0.684841
494,0.684505
495,0.684169
496,0.683832
497,0.683496
498,0.683111
499,0.682684
500,0.682257
501,0.68183
502,0.681402
503,0.680975
504,0.680548
505,0.680121
506,0.679767
507,0.679881
508,0.679994
509,0.680108
510,0.680221
511,0.680335
512,0.680448
513,0.680634
514,0.682674
515,0.684714
516,0.686754
517,0.688795
518,0.690835
519,0.692875
520,0.694915
521,0.696955
522,0.69909
523,0.701503
524,0.703917
525,0.706331
526,0.708744
527,0.711158
528,0.713572
529,0.715986
530,0.718399
531,0.721216
532,0.72404
533,0.726864
534,0.729688
535,0.732512
536,0.735336
537,0.740452
538,0.745625
539,0.750797
540,0.75597
541,0.761143
542,0.766295
543,0.770085
544,0.773874
545,0.777664
546,0.781453
547,0.785243
548,0.789032
549,0.792953
550,0.802309
551,0.811398
552,0.814456
553,0.817514
554,0.820572
555,0.82363
556,0.826688
557,0.832948
558,0.839275
559,0.845601
560,0.851927
561,0.857815
562,0.862379
563,0.866943
564,0.871507
565,0.876071
566,0.880635
567,0.885354
568,0.890131
569,0.894908
570,0.899685
571,0.904327
572,0.907868
573,0.91141
574,0.914952
575,0.918494
576,0.922035
577,0.926548
578,0.931312
579,0.936076
580,0.94084
581,0.945603
582,0.950367
583,0.954227
584,0.957051
585,0.959874
586,0.962698
587,0.965521
588,0.968345
589,0.971168
590,0.973792
591,0.975693
592,0.977595
593,0.979497
594,0.981399
595,0.9833
596,0.985202
597,0.987104
598,0.987989
599,0.988552
600,0.989116
601,0.989679
602,0.990242
603,0.990806
604,0.991369
605,0.991933
606,0.992496
607,0.991823
608,0.99093
609,0.990036
610,0.989142
611,0.988249
612,0.987355
613,0.986461
614,0.984135
615,0.981737
616,0.979339
617,0.976941
618,0.974543
619,0.972145
620,0.969747
621,0.967349
622,0.963137
623,0.958732
624,0.954327
625,0.949922
626,0.945517
627,0.940332
628,0.933899
629,0.927465
630,0.921031
631,0.917683
632,0.917419
633,0.917154
634,0.916889
635,0.91486
636,0.897827
637,0.885326
638,0.878377
639,0.871428
640,0.864479
641,0.857215
642,0.849857
643,0.842499
644,0.834984
645,0.825884
646,0.816783
647,0.807683
648,0.79513
649,0.782342
650,0.770453
651,0.763141
652,0.755829
653,0.748516
654,0.741204
655,0.73219
656,0.722317
657,0.712434
658,0.70251
659,0.692586
660,0.681958
661,0.670928
662,0.660514
663,0.650923
664,0.641332
665,0.629455
666,0.61736
667,0.607044
668,0.596727
669,0.582866
670,0.568146
671,0.558482
672,0.551097
673,0.543713
674,0.544036
675,0.551268
676,0.504169
677,0.492895
678,0.48164
679,0.470448
680,0.459225
681,0.447059
682,0.434893
683,0.422861
684,0.410857
685,0.399302
686,0.388028
687,0.376738
688,0.365424
689,0.354855
690,0.344337
691,0.33382
692,0.323303
693,0.312785
694,0.302268
695,0.333729
696,0.295309
697,0.269313
698,0.258513
699,0.249381
700,0.244892
701,0.240403
702,0.235914
703,0.231425
704,0.226936
705,0.222447
706,0.217958
707,0.213469
708,0.189789
709,0.172001
710,0.157872
711,0.14692
712,0.14804
713,0.149161
714,0.150281
715,0.149601
716,0.126437
717,0.114033
718,0.108734
719,0.103434
720,0.0981345
721,0.0928349
722,0.0877666
723,0.0827494
724,0.0777322
725,0.072715
726,0.067712
727,0.063095
728,0.058478
729,0.053861
730,0.049244
731,0.0462322
732,0.0446839
733,0.0431356
734,0.0415873
735,0.040039
736,0.0384907
737,0.0369424
738,0.0351204
739,0.0332079
740,0.0312953
741,0.0293828
742,0.0274702
743,0.0255577
744,0.0236452
745,0.0217326
746,0.0201433
747,0.0188364
748,0.0175296
749,0.0162227
750,0.0149159
751,0.013609
752,0.0123022
753,0.0117687
754,0.0116809
755,0.0115931
756,0.0115054
757,0.0114176
758,0.0113298
759,0.0112421
760,0.0111543
761,0.0110424
762,0.0106509
763,0.0102593
764,0.00986768
765,0.00947609
766,0.0090845
767,0.00869291
768,0.00830132
769,0.00790973
770,0.00780838
771,0.00828346
772,0.00875854
773,0.00923362
774,0.00970871
775,0.0101838
776,0.0106589
777,0.0111174
778,0.0115081
779,0.0118988
780,0.0122895
781,0.0126802
782,0.0130708
783,0.0134615
784,0.0138522
785,0.0142429
786,0.0144065
787,0.0143312
788,0.014256
789,0.0141807
790,0.0141055
791,0.0140302
792,0.013955
793,0.0140577
794,0.0144933
795,0.0149289
796,0.0153645
797,0.0158001
798,0.0162357
799,0.0166713