File: conjugated_ECPs/uv_vis_automated/Nature Materials, 2008, 7, 795–799/metadata/P5.txt
Wavelength (nm)	Absorbance
355	0.303687
356	0.307728
357	0.31557
358	0.321903
359	0.324657
360	0.335238
361	0.341717
362	0.355331
363	0.35365
364	0.371504
365	0.370567
366	0.381782
367	0.387223
368	0.385484
369	0.402489
370	0.408625
371	0.415306
372	0.426622
373	0.427784
374	0.437927
375	0.44518
376	0.452945
377	0.449196
378	0.457078
379	0.458023
380	0.468578
381	0.474343
382	0.471969
383	0.489449
384	0.490499
385	0.491552
386	0.500056
387	0.495084
388	0.499295
389	0.518384
390	0.517455
391	0.518479
392	0.529889
393	0.537801
394	0.534859
395	0.533933
396	0.542507
397	0.539449
398	0.540969
399	0.538916
400	0.535019
401	0.530816
402	0.526687
403	0.52682
404	0.513171
405	0.509559
406	0.521019
407	0.508377
408	0.505004
409	0.491425
410	0.486454
411	0.479749
412	0.473698
413	0.464704
414	0.457704
415	0.448673
416	0.438589
417	0.425167
418	0.415453
419	0.399769
420	0.38977
421	0.378368
422	0.367664
423	0.351134
424	0.335598
425	0.328259
426	0.309415
427	0.294293
428	0.284357
429	0.281512
430	0.262866
431	0.24589
432	0.234405
433	0.22292
434	0.203413
435	0.199469
436	0.205754
437	0.183908
438	0.178487
439	0.171998
440	0.161488
441	0.160709
442	0.151838
443	0.15046
444	0.145626
445	0.14182
446	0.137746
447	0.138206
448	0.134698
449	0.131433
450	0.132959
451	0.131137
452	0.131137
453	0.131137
454	0.131137
455	0.131137
456	0.131137
457	0.131137
458	0.131137
459	0.131354
460	0.132202
461	0.131143
462	0.134056
463	0.136967
464	0.139338
465	0.139575
466	0.143284
467	0.141869
468	0.146959
469	0.148796
470	0.149609
471	0.150547
472	0.154507
473	0.156344
474	0.159903
475	0.159096
476	0.162935
477	0.16618
478	0.169856
479	0.168896
480	0.172861
481	0.178507
482	0.178027
483	0.181282
484	0.183847
485	0.18999
486	0.190152
487	0.194277
488	0.1988
489	0.201996
490	0.202452
491	0.206772
492	0.21095
493	0.214681
494	0.214777
495	0.221654
496	0.225475
497	0.224584
498	0.230416
499	0.234896
500	0.237762
501	0.242514
502	0.248328
503	0.24819
504	0.25037
505	0.255194
506	0.260839
507	0.263142
508	0.270024
509	0.272135
510	0.274772
511	0.279521
512	0.285669
513	0.291349
514	0.29165
515	0.29614
516	0.301303
517	0.306493
518	0.307636
519	0.315133
520	0.317443
521	0.322028
522	0.327004
523	0.332289
524	0.337803
525	0.342494
526	0.347571
527	0.351237
528	0.357975
529	0.361984
530	0.367364
531	0.369873
532	0.376905
533	0.382316
534	0.387427
535	0.393165
536	0.398228
537	0.402788
538	0.406691
539	0.412003
540	0.417771
541	0.423478
542	0.428457
543	0.433923
544	0.44198
545	0.445883
546	0.453977
547	0.458159
548	0.464113
549	0.469452
550	0.479122
551	0.481652
552	0.490708
553	0.497124
554	0.503815
555	0.505694
556	0.511865
557	0.523227
558	0.525331
559	0.534067
560	0.540163
561	0.545824
562	0.554637
563	0.563886
564	0.568255
565	0.573886
566	0.579572
567	0.589168
568	0.597174
569	0.601768
570	0.610306
571	0.615775
572	0.6255046
573	0.63027
574	0.637565
575	0.646914
576	0.65498
577	0.658323
578	0.667764
579	0.674522
580	0.684093
581	0.688454
582	0.699506
583	0.70317
584	0.715374
585	0.720865
586	0.722844
587	0.735356
588	0.742326
589	0.747433
590	0.759
591	0.761299
592	0.758314
593	0.780253
594	0.783142
595	0.794095
596	0.801632
597	0.80373
598	0.81572
599	0.819968
600	0.829967
601	0.837605
602	0.841299
603	0.851062
604	0.857665
605	0.863349
606	0.86988
607	0.868315
608	0.877381
609	0.887693
610	0.89379
611	0.902457
612	0.908858
613	0.912867
614	0.918467
615	0.92176
616	0.92754
617	0.933858
618	0.939212
619	0.942266
620	0.949616
621	0.950494
622	0.956644
623	0.961619
624	0.963863
625	0.969749
626	0.966984
627	0.975524
628	0.977555
629	0.97886
630	0.98323
631	0.986388
632	0.989432
633	0.991437
634	0.9899297
635	0.99373
636	0.996977
637	0.998815
638	1.00021
639	1.00159
640	1.00245
641	1.00245
642	1.00245
643	1.002
644	1.00093
645	1.00295
646	1.00249
647	1.00203
648	0.998409
649	0.998743
650	0.997624
651	0.995061
652	0.995136
653	0.993299
654	0.991461
655	0.987016
656	0.983455
657	0.983455
658	0.979034
659	0.972782
660	0.971378
661	0.96762
662	0.962593
663	0.954594
664	0.953917
665	0.946106
666	0.936279
667	0.933781
668	0.929137
669	0.922708
670	0.910712
671	0.907823
672	0.896196
673	0.880834
674	0.875523
675	0.865584
676	0.852797
677	0.843396
678	0.836674
679	0.821904
680	0.807582
681	0.796467
682	0.779808
683	0.768035
684	0.757573
685	0.750059
686	0.725396
687	0.720048
688	0.70319
689	0.683667
690	0.664866
691	0.651892
692	0.636893
693	0.620578
694	0.602552
695	0.590789
696	0.572718
697	0.553514
698	0.545274
699	0.539579
700	0.499743
701	0.485447
702	0.476014
703	0.457476
704	0.436911
705	0.421952
706	0.409055
707	0.392454
708	0.378242
709	0.367462
710	0.350134
711	0.330899
712	0.319511
713	0.302539
714	0.291778
715	0.280158
716	0.271391
717	0.25699
718	0.242938
719	0.237306
720	0.221629
721	0.214093
722	0.205286
723	0.194172
724	0.184555
725	0.173742
726	0.170682
727	0.159801
728	0.152598
729	0.149766
730	0.14182
731	0.131493
732	0.127587
733	0.124757
734	0.115323
735	0.110172
736	0.104908
737	0.103989
738	0.0962052
739	0.094218
740	0.0914422
741	0.0872149
742	0.08607832
743	0.082419
744	0.0796627
745	0.0753442
746	0.071783
747	0.06822175
748	0.06822175
749	0.0674414
750	0.0634735
751	0.0620806
752	0.0583414
753	0.0593108
754	0.0575057
755	0.0565869
756	0.0527898
757	0.0523751
758	0.0510172
759	0.0494404
760	0.0488219
761	0.0475129
762	0.0465941
763	0.0456753
764	0.0433903
765	0.04237842
766	0.0417319
767	0.0403539
768	0.03724652
769	0.0377885
770	0.0368697
771	0.0349979
772	0.0334098
773	0.0329262
774	0.0320074
775	0.0310886
776	0.0298419
777	0.0282376
778	0.0279742
779	0.0270438
780	0.0264947
781	0.0255759
782	0.0224012
783	0.02194182
784	0.0210389
785	0.0207389
786	0.0203884
787	0.0193464
788	0.0170494
789	0.01621777