File: conjugated_ECPs/uv_vis_automated/Nature Materials, 2008, 7, 795–799/metadata/P9.txt
Wavelength (nm)	Absorbance
360	0.341948
361	0.347725
362	0.353502
363	0.359143
364	0.364576
365	0.370008
366	0.375441
367	0.3808737
368	0.386306
369	0.391739
370	0.397172
371	0.402604
372	0.408037
373	0.41347
374	0.420772
375	0.428728
376	0.436685
377	0.444641
378	0.452597
379	0.459887
380	0.466336
381	0.472785
382	0.479233
383	0.485682
384	0.492131
385	0.49858
386	0.505069
387	0.511647
388	0.518225
389	0.524804
390	0.531382
391	0.53796
392	0.54436
393	0.549546
394	0.554732
395	0.559919
396	0.565105
397	0.570291
398	0.575477
399	0.580663
400	0.58585
401	0.591036
402	0.596222
403	0.602488
404	0.608771
405	0.615054
406	0.621337
407	0.62762
408	0.633903
409	0.639646
410	0.644506
411	0.649367
412	0.654227
413	0.659087
414	0.663948
415	0.668808
416	0.673669
417	0.678529
418	0.683389
419	0.68825
420	0.690403
421	0.691934
422	0.693465
423	0.694996
424	0.696527
425	0.698058
426	0.699589
427	0.70112
428	0.702651
429	0.704182
430	0.705713
431	0.707244
432	0.708775
433	0.710306
434	0.711837
435	0.713368
436	0.714899
437	0.71643
438	0.717959
439	0.719445
440	0.720932
441	0.722419
442	0.7239059
443	0.725393
444	0.72688
445	0.728366
446	0.729853
447	0.73134
448	0.732827
449	0.734314
450	0.7358
451	0.737287
452	0.738774
453	0.740261
454	0.741748
455	0.743235
456	0.744721
457	0.746208
458	0.747695
459	0.749182
460	0.750669
461	0.752156
462	0.754392
463	0.756674
464	0.758956
465	0.761239
466	0.763521
467	0.765803
468	0.768086
469	0.770368
470	0.77265
471	0.774933
472	0.777215
473	0.779497
474	0.78178
475	0.784062
476	0.786345
477	0.788627
478	0.790909
479	0.793192
480	0.795474
481	0.797756
482	0.800961
483	0.804501
484	0.808041
485	0.811582
486	0.815122
487	0.818662
488	0.822203
489	0.825743
490	0.829283
491	0.832824
492	0.836369
493	0.840057
494	0.843745
495	0.847432
496	0.85112
497	0.854808
498	0.858495
499	0.862183
500	0.865871
501	0.869559
502	0.873246
503	0.876934
504	0.880264
505	0.883192
506	0.886119
507	0.889046
508	0.891974
509	0.8949014
510	0.897829
511	0.900756
512	0.903684
513	0.906611
514	0.909539
515	0.912466
516	0.9153937
517	0.918388
518	0.922263
519	0.926138
520	0.930014
521	0.933889
522	0.937765
523	0.94164
524	0.945516
525	0.949391
526	0.953267
527	0.957142
528	0.961204
529	0.965583
530	0.969962
531	0.974341
532	0.97872
533	0.983098
534	0.987477
535	0.991856
536	0.996235
537	1.00061
538	1.00499
539	1.00746
540	1.00975
541	1.01203
542	1.01431
543	1.01659
544	1.01888
545	1.02116
546	1.02344
547	1.02572
548	1.02801
549	1.03029
550	1.03257
551	1.03485
552	1.03714
553	1.03942
554	1.0417
555	1.04397
556	1.04564
557	1.04731
558	1.04899
559	1.05066
560	1.05233
561	1.054
562	1.05568
563	1.05735
564	1.05902
565	1.0607
566	1.06237
567	1.06404
568	1.06571
569	1.06739
570	1.06906
571	1.07073
572	1.07241
573	1.07408
574	1.07575
575	1.07742
576	1.0791
577	1.08102
578	1.08308
579	1.08514
580	1.0872
581	1.08927
582	1.09133
583	1.09339
584	1.09545
585	1.09752
586	1.09958
587	1.10164
588	1.1037
589	1.10577
590	1.10783
591	1.10989
592	1.11196
593	1.11402
594	1.11608
595	1.11814
596	1.11898
597	1.11808
598	1.11718
599	1.11628
600	1.11538
601	1.11448
602	1.11358
603	1.11268
604	1.11178
605	1.11088
606	1.10998
607	1.10908
608	1.10818
609	1.10728
610	1.10638
611	1.10548
612	1.10458
613	1.10368
614	1.10278
615	1.10188
616	1.10098
617	1.10008
618	1.09918
619	1.09828
620	1.09738
621	1.09648
622	1.09586
623	1.09557
624	1.09529
625	1.095
626	1.09471
627	1.09443
628	1.09414
629	1.09386
630	1.09357
631	1.09329
632	1.093
633	1.09272
634	1.09243
635	1.09214
636	1.09186
637	1.09157
638	1.09129
639	1.091
640	1.09072
641	1.09043
642	1.09014
643	1.08986
644	1.08957
645	1.08929
646	1.089
647	1.08872
648	1.08769
649	1.08496
650	1.08224
651	1.07951
652	1.07679
653	1.07406
654	1.07134
655	1.06862
656	1.06589
657	1.06317
658	1.06044
659	1.05772
660	1.055
661	1.05227
662	1.04955
663	1.04682
664	1.0441
665	1.04137
666	1.03865
667	1.03468
668	1.03023
669	1.02578
670	1.02132
671	1.01687
672	1.01241
673	1.00796
674	1.00351
675	0.999053
676	0.994599
677	0.989415
678	0.982527
679	0.97564
680	0.968752
681	0.961864
682	0.954976
683	0.948089
684	0.940031
685	0.931324
686	0.922617
687	0.91391
688	0.905203
689	0.896496
690	0.888488
691	0.882091
692	0.875695
693	0.869298
694	0.862902
695	0.856505
696	0.850108
697	0.836599
698	0.821355
699	0.806112
700	0.790089
701	0.772879
702	0.755669
703	0.739437
704	0.723799
705	0.708161
706	0.692523
707	0.676277
708	0.653361
709	0.630445
710	0.607693
711	0.596181
712	0.58467
713	0.573158
714	0.561646
715	0.550135
716	0.504831
717	0.494931
718	0.487147
719	0.479364
720	0.471581
721	0.463798
722	0.456015
723	0.409544
724	0.398316
725	0.387088
726	0.375559
727	0.360272
728	0.344985
729	0.33419
730	0.32847
731	0.32275
732	0.31703
733	0.31131
734	0.30559
735	0.29987
736	0.294149
737	0.288429
738	0.272109
739	0.247249
740	0.231635
741	0.224122
742	0.216609
743	0.209096
744	0.202707
745	0.196617
746	0.190526
747	0.184436
748	0.178346
749	0.172256
750	0.166165
751	0.159708
752	0.152659
753	0.14561
754	0.138561
755	0.131512
756	0.125184
757	0.120107
758	0.115029
759	0.109951
760	0.104873
761	0.0997952
762	0.0947174
763	0.0896395
764	0.0845617
765	0.0813762
766	0.0797868
767	0.0781974
768	0.076608
769	0.0750186
770	0.0734292
771	0.0718398
772	0.0702504
773	0.06866105
774	0.0670717
775	0.0654823
776	0.0638929
777	0.0623035
778	0.0607141
779	0.0591247
780	0.0575353
781	0.0566045
782	0.0558895
783	0.0551746
784	0.0544597
785	0.0537448
786	0.0530298
787	0.0523149
788	0.0516
789	0.0508851
790	0.05017016
791	0.0494552
792	0.0487403
793	0.0480254
794	0.0473105
795	0.04659555
796	0.0458806
797	0.0451657
798	0.0444508
799	0.0437359