File: conjugated_ECPs/uv_vis_automated/Polymer Chemistry, 11, 2173 – 2181, 2020/metadata/P(BAcDOT-DMP).txt
Wavelength (nm),Absorbance
360,0.104996
361,0.106406
362,0.107972
363,0.109664
364,0.111355
365,0.113046
366,0.114606
367,0.115754
368,0.116903
369,0.118051
370,0.1192
371,0.120555
372,0.121926
373,0.123297
374,0.124668
375,0.126181
376,0.127783
377,0.129386
378,0.130989
379,0.132656
380,0.134476
381,0.136297
382,0.138117
383,0.139938
384,0.142079
385,0.144226
386,0.146373
387,0.148521
388,0.150634
389,0.152729
390,0.154824
391,0.156919
392,0.159021
393,0.161134
394,0.163248
395,0.165361
396,0.167472
397,0.169524
398,0.171577
399,0.173629
400,0.175681
401,0.178117
402,0.180705
403,0.183293
404,0.18588
405,0.188511
406,0.191205
407,0.193899
408,0.196593
409,0.199277
410,0.201854
411,0.204431
412,0.207008
413,0.209585
414,0.212327
415,0.215119
416,0.217911
417,0.220703
418,0.223842
419,0.2272
420,0.230559
421,0.233912
422,0.237206
423,0.2405
424,0.243794
425,0.247089
426,0.251265
427,0.255655
428,0.260046
429,0.263875
430,0.266468
431,0.26906
432,0.271653
433,0.277844
434,0.28468
435,0.290676
436,0.29314
437,0.295603
438,0.298067
439,0.30249
440,0.311507
441,0.318796
442,0.321516
443,0.324236
444,0.326956
445,0.329938
446,0.341163
447,0.346543
448,0.351584
449,0.356754
450,0.362093
451,0.367432
452,0.37344
453,0.379753
454,0.386171
455,0.392968
456,0.399764
457,0.408192
458,0.416163
459,0.422047
460,0.427932
461,0.435679
462,0.444261
463,0.451539
464,0.458331
465,0.465987
466,0.474351
467,0.482416
468,0.490349
469,0.497372
470,0.504449
471,0.512162
472,0.519835
473,0.527203
474,0.534571
475,0.541957
476,0.549343
477,0.556299
478,0.563338
479,0.572652
480,0.580821
481,0.587914
482,0.595181
483,0.60319
484,0.611719
485,0.621324
486,0.629883
487,0.638179
488,0.651344
489,0.660868
490,0.669885
491,0.679171
492,0.688713
493,0.700542
494,0.709656
495,0.718291
496,0.728128
497,0.736986
498,0.745183
499,0.762965
500,0.766121
501,0.769277
502,0.773877
503,0.788319
504,0.794133
505,0.799947
506,0.806119
507,0.813257
508,0.819927
509,0.823411
510,0.826894
511,0.830377
512,0.833841
513,0.83703
514,0.840219
515,0.843408
516,0.846597
517,0.849922
518,0.853343
519,0.856763
520,0.860184
521,0.864564
522,0.869371
523,0.874178
524,0.879642
525,0.885587
526,0.891531
527,0.899171
528,0.907292
529,0.91561
530,0.92406
531,0.931133
532,0.937974
533,0.94424
534,0.95034
535,0.957173
536,0.964628
537,0.971574
538,0.977968
539,0.983006
540,0.987539
541,0.992072
542,0.996605
543,0.997788
544,0.99749
545,0.997192
546,0.996894
547,0.994038
548,0.990419
549,0.9868
550,0.983182
551,0.979355
552,0.975416
553,0.971477
554,0.967538
555,0.963599
556,0.95966
557,0.95456
558,0.947732
559,0.940903
560,0.933274
561,0.921038
562,0.903692
563,0.894608
564,0.890324
565,0.886041
566,0.881758
567,0.877474
568,0.875042
569,0.873925
570,0.872808
571,0.871691
572,0.870892
573,0.870959
574,0.871025
575,0.876658
576,0.882809
577,0.88896
578,0.895111
579,0.901208
580,0.907063
581,0.912918
582,0.918844
583,0.924956
584,0.931068
585,0.939091
586,0.943942
587,0.945867
588,0.947791
589,0.949716
590,0.95164
591,0.9534
592,0.95163
593,0.949859
594,0.948089
595,0.946319
596,0.940045
597,0.932362
598,0.924387
599,0.916323
600,0.905171
601,0.893784
602,0.884041
603,0.873678
604,0.86169
605,0.851863
606,0.808332
607,0.785218
608,0.751562
609,0.730968
610,0.693024
611,0.664006
612,0.612843
613,0.590126
614,0.542348
615,0.51605
616,0.483622
617,0.439632
618,0.406605
619,0.375344
620,0.350157
621,0.306714
622,0.290509
623,0.258974
624,0.233815
625,0.210644
626,0.179778
627,0.169066
628,0.139708
629,0.128058
630,0.118848
631,0.111123
632,0.103755
633,0.0968464
634,0.0899373
635,0.0830283
636,0.0761193
637,0.0703383
638,0.0667662
639,0.0631942
640,0.0596222
641,0.0571257
642,0.0553142
643,0.0535027
644,0.0516913
645,0.0500728
646,0.0489151
647,0.0477574
648,0.0465997
649,0.045442
650,0.0441108
651,0.0427761
652,0.0414413
653,0.0401065
654,0.0391335
655,0.0383436
656,0.0375536
657,0.0367636
658,0.0362109
659,0.0361019
660,0.035993
661,0.035884
662,0.0357684
663,0.0354551
664,0.0351419
665,0.0348286
666,0.0345153
667,0.0339483
668,0.0332812
669,0.0326141
670,0.0319469
671,0.0312759
672,0.0306017
673,0.0299275
674,0.0292533
675,0.0296646
676,0.0306003
677,0.031536
678,0.0310548
679,0.0305055
680,0.0299561
681,0.0294068
682,0.0289474
683,0.0289474
684,0.0289474
685,0.0289474
686,0.0289474
687,0.0293575
688,0.0304561
689,0.0315548
690,0.0326535
691,0.0337522
692,0.0342105
693,0.0342105
694,0.0342105
695,0.0342105
696,0.0342105
697,0.0342105
698,0.0340493
699,0.0332253
700,0.0324013
701,0.0315773
702,0.0307533
703,0.0299293
704,0.0291053
705,0.0289474
706,0.0289474
707,0.0289474
708,0.0289474
709,0.0289474
710,0.0289474
711,0.0289474
712,0.0289474
713,0.0289474
714,0.0289474
715,0.0289474
716,0.0289474
717,0.0289474
718,0.0289474
719,0.0289474
720,0.0289474
721,0.0289474
722,0.0289474
723,0.0289474
724,0.0289474
725,0.0289474
726,0.0289474
727,0.0289474
728,0.0286818
729,0.0282762
730,0.0278705
731,0.0274649
732,0.0270593
733,0.0266537
734,0.0267143
735,0.0268326
736,0.0269509
737,0.0270692
738,0.0271875
739,0.0271467
740,0.0270922
741,0.0270377
742,0.0269833
743,0.0267805
744,0.0264808
745,0.0261812
746,0.0258816
747,0.0259861
748,0.0270836
749,0.0281812
750,0.0292787
751,0.0303763
752,0.0314738
753,0.0318559
754,0.0321622
755,0.0324685
756,0.0327748
757,0.0330811
758,0.0333874
759,0.0336937
760,0.0339999
761,0.0340929
762,0.0341746
763,0.0342563
764,0.034338
765,0.0334381
766,0.0319724
767,0.0305067
768,0.029041
769,0.0289474
770,0.0289474
771,0.0289474
772,0.0289474
773,0.0289474
774,0.0289474
775,0.0289474
776,0.0289474
777,0.0291289
778,0.0303103
779,0.0314916