File: conjugated_ECPs/uv_vis_automated/Polymer Chemistry, 11, 2173 – 2181, 2020/metadata/P(BAcDOT).txt
Wavelength (nm),Absorbance
360,0.254298
361,0.258216
362,0.262134
363,0.266051
364,0.270727
365,0.275602
366,0.280477
367,0.28561
368,0.290862
369,0.296113
370,0.302297
371,0.308575
372,0.314908
373,0.32134
374,0.327772
375,0.334318
376,0.340865
377,0.347853
378,0.355079
379,0.362755
380,0.370896
381,0.378842
382,0.386616
383,0.394827
384,0.403148
385,0.411328
386,0.419752
387,0.430045
388,0.439476
389,0.447836
390,0.456471
391,0.465248
392,0.475256
393,0.485952
394,0.498335
395,0.507024
396,0.515756
397,0.525352
398,0.536164
399,0.547414
400,0.558384
401,0.568461
402,0.578584
403,0.590986
404,0.600511
405,0.610011
406,0.623054
407,0.633606
408,0.643861
409,0.654688
410,0.664285
411,0.674416
412,0.685911
413,0.696908
414,0.707566
415,0.717712
416,0.727212
417,0.736567
418,0.746062
419,0.755153
420,0.763743
421,0.775729
422,0.785225
423,0.793532
424,0.802862
425,0.81165
426,0.819354
427,0.827687
428,0.836717
429,0.844537
430,0.851748
431,0.859021
432,0.866353
433,0.873804
434,0.881456
435,0.888442
436,0.894221
437,0.9
438,0.906037
439,0.912124
440,0.918448
441,0.925149
442,0.931549
443,0.935941
444,0.940333
445,0.944725
446,0.949654
447,0.954793
448,0.959933
449,0.963662
450,0.967148
451,0.970634
452,0.97412
453,0.977201
454,0.980252
455,0.983303
456,0.986354
457,0.988677
458,0.990543
459,0.992409
460,0.994275
461,0.995686
462,0.996026
463,0.996367
464,0.996707
465,0.997048
466,0.995796
467,0.994515
468,0.993235
469,0.991955
470,0.989412
471,0.986239
472,0.983066
473,0.979893
474,0.97582
475,0.971436
476,0.967052
477,0.961774
478,0.955206
479,0.948597
480,0.941689
481,0.934782
482,0.927892
483,0.921003
484,0.91359
485,0.906141
486,0.897824
487,0.889632
488,0.881709
489,0.873356
490,0.864548
491,0.855696
492,0.84701
493,0.838719
494,0.829783
495,0.820428
496,0.810122
497,0.801024
498,0.792904
499,0.783462
500,0.772764
501,0.76201
502,0.752405
503,0.744222
504,0.735526
505,0.72569
506,0.715854
507,0.706253
508,0.697343
509,0.686589
510,0.675229
511,0.66701
512,0.658177
513,0.647876
514,0.637726
515,0.627535
516,0.616823
517,0.605743
518,0.59474
519,0.585203
520,0.575266
521,0.564915
522,0.55479
523,0.544904
524,0.535479
525,0.526016
526,0.516452
527,0.506461
528,0.496594
529,0.486807
530,0.47697
531,0.467444
532,0.458277
533,0.449294
534,0.440018
535,0.430089
536,0.420723
537,0.411514
538,0.402671
539,0.393522
540,0.384006
541,0.374868
542,0.365224
543,0.355026
544,0.345297
545,0.335945
546,0.327234
547,0.31735
548,0.307265
549,0.297428
550,0.287088
551,0.276597
552,0.266512
553,0.256647
554,0.246713
555,0.236567
556,0.226037
557,0.215449
558,0.205201
559,0.195265
560,0.185536
561,0.175905
562,0.166323
563,0.156795
564,0.147549
565,0.138559
566,0.130128
567,0.121941
568,0.114103
569,0.105985
570,0.0977198
571,0.0909763
572,0.0842328
573,0.0778405
574,0.0714978
575,0.0661257
576,0.0615222
577,0.0569188
578,0.0527424
579,0.0490457
580,0.0453491
581,0.0416524
582,0.0383974
583,0.0356597
584,0.0329221
585,0.0301845
586,0.0275573
587,0.0255824
588,0.0236075
589,0.0216326
590,0.0196577
591,0.0182362
592,0.0169287
593,0.0156212
594,0.0143136
595,0.013209
596,0.0122964
597,0.0113839
598,0.0104713
599,0.00965586
600,0.00923364
601,0.00881141
602,0.00838919
603,0.00796697
604,0.00754475
605,0.00712253
606,0.00670031
607,0.00627809
608,0.0060411
609,0.00594576
610,0.00585042
611,0.00575508
612,0.00552639
613,0.00489987
614,0.00427335
615,0.00364682
616,0.0030203
617,0.00291613
618,0.00284803
619,0.00277993
620,0.00271183
621,0.00268593
622,0.00268593
623,0.00268593
624,0.00268593
625,0.00268593
626,0.00268593
627,0.00268593
628,0.00268593
629,0.00268593
630,0.00268593
631,0.00268593
632,0.00268593
633,0.00268593
634,0.002411
635,0.0020024
636,0.0015938
637,0.0011852
638,0.00090796
639,0.0008671
640,0.000826239
641,0.000785379
642,0.000746218
643,0.000746218
644,0.000746218
645,0.000746218
646,0.000746218
647,0.000746218
648,0.000746218
649,0.000746218
650,0.000746218
651,0.000746218
652,0.000746218
653,0.000746218
654,0.000746218
655,0.000748797
656,0.000776037
657,0.000803277
658,0.000830517
659,0.000857757
660,0.000884997
661,0.000912237
662,0.000939477
663,0.000966717
664,0.00115805
665,0.00153942
666,0.00192078
667,0.00230214
668,0.00262916
669,0.00264278
670,0.0026564
671,0.00267003
672,0.00268365
673,0.00268593
674,0.00268593
675,0.00268593
676,0.00268593
677,0.00268593
678,0.00268593
679,0.00268593
680,0.00268593
681,0.00278167
682,0.00325837
683,0.00373508
684,0.00421178
685,0.00468848
686,0.00498433
687,0.00525674
688,0.00552914
689,0.00580154
690,0.00591103
691,0.00589741
692,0.00588379
693,0.00587017
694,0.00594993
695,0.00630405
696,0.00665817
697,0.00701229
698,0.00736642
699,0.0074905
700,0.00759947
701,0.00770843
702,0.00781739
703,0.0078585
704,0.0078585
705,0.0078585
706,0.0078585
707,0.00799649
708,0.00844596
709,0.00889542
710,0.00934488
711,0.00979434
712,0.00994674
713,0.0100966
714,0.0102464
715,0.0103962
716,0.0104632
717,0.0104904
718,0.0105177
719,0.0105449
720,0.0109044
721,0.0118544
722,0.0128043
723,0.0137542
724,0.0147042
725,0.0150171
726,0.0151631
727,0.0153091
728,0.015455
729,0.0155264
730,0.0155373
731,0.0157634
732,0.0166559
733,0.0175484
734,0.018441
735,0.0193335
736,0.020226
737,0.0210526
738,0.0210526
739,0.0210526
740,0.0210526
741,0.0210526
742,0.0210517
743,0.0210483
744,0.0210449
745,0.0210415
746,0.0210381
747,0.0210347
748,0.0210313
749,0.0210279
750,0.0210579
751,0.0212758
752,0.0214937
753,0.0217116
754,0.0219296
755,0.0220906
756,0.0222404
757,0.0223903
758,0.0225401
759,0.0226616
760,0.0227569
761,0.0228523
762,0.0229476
763,0.0230208
764,0.0230071
765,0.0229935
766,0.0229799
767,0.0229663
768,0.0230494
769,0.0231448
770,0.0232401
771,0.0233354
772,0.023462
773,0.0236118
774,0.0237616
775,0.0239114
776,0.0240822
777,0.0243138
778,0.0245453
779,0.0247769