File: conjugated_ECPs/uv_vis_automated/Polymer Chemistry, 11, 2173 – 2181, 2020/metadata/P(LAcDOT).csv
Wavelength (nm),Absorbance
360,0.0815789
361,0.0816993
362,0.0826882
363,0.083677
364,0.0846658
365,0.0856546
366,0.0866434
367,0.0876322
368,0.0886211
369,0.0894737
370,0.0894737
371,0.0894737
372,0.0894737
373,0.0915482
374,0.0937456
375,0.095943
376,0.0981404
377,0.1
378,0.1
379,0.1
380,0.1
381,0.1
382,0.1
383,0.101064
384,0.102947
385,0.104831
386,0.106714
387,0.108598
388,0.110481
389,0.112671
390,0.114868
391,0.117066
392,0.119263
393,0.121155
394,0.121704
395,0.122253
396,0.122803
397,0.123352
398,0.124173
399,0.125409
400,0.126645
401,0.127881
402,0.129117
403,0.130353
404,0.13159
405,0.133003
406,0.134415
407,0.135828
408,0.137241
409,0.138653
410,0.14051
411,0.142982
412,0.145454
413,0.147666
414,0.148984
415,0.150303
416,0.151621
417,0.152974
418,0.154439
419,0.155904
420,0.157368
421,0.158833
422,0.160298
423,0.161763
424,0.163271
425,0.165625
426,0.167979
427,0.170334
428,0.172688
429,0.175042
430,0.177829
431,0.181125
432,0.184421
433,0.187542
434,0.190179
435,0.192816
436,0.195453
437,0.19842
438,0.202265
439,0.206111
440,0.209956
441,0.213802
442,0.217382
443,0.220678
444,0.223974
445,0.22727
446,0.230335
447,0.23316
448,0.235985
449,0.23881
450,0.241635
451,0.244461
452,0.247711
453,0.251007
454,0.254303
455,0.257599
456,0.262895
457,0.268388
458,0.276993
459,0.28853
460,0.293509
461,0.297904
462,0.303447
463,0.310039
464,0.316632
465,0.322862
466,0.328355
467,0.333849
468,0.345333
469,0.349728
470,0.354123
471,0.360145
472,0.366737
473,0.373329
474,0.378118
475,0.381414
476,0.384711
477,0.388783
478,0.394276
479,0.39977
480,0.403158
481,0.406454
482,0.411605
483,0.418197
484,0.424789
485,0.430469
486,0.434589
487,0.438709
488,0.443456
489,0.451147
490,0.458838
491,0.470816
492,0.483395
493,0.493283
494,0.501882
495,0.509572
496,0.519579
497,0.543243
498,0.559838
499,0.567529
500,0.596053
501,0.612523
502,0.624059
503,0.639508
504,0.645276
505,0.651044
506,0.6568125
507,0.675069
508,0.680013
509,0.684957
510,0.68725
511,0.687909
512,0.688568
513,0.689228
514,0.689474
515,0.689474
516,0.689474
517,0.689474
518,0.687382
519,0.684211
520,0.684211
521,0.684211
522,0.684211
523,0.683515
524,0.682691
525,0.681867
526,0.683295
527,0.685932
528,0.688568
529,0.691205
530,0.729145
531,0.735026
532,0.748211
533,0.749132
534,0.764513
535,0.777007
536,0.818175
537,0.826965
538,0.835754
539,0.882178
540,0.889868
541,0.897559
542,0.916533
543,0.92275
544,0.940632
545,0.950592
546,0.957184
547,0.984365
548,0.986013
549,0.987661
550,0.989309
551,0.990957
552,0.992605
553,0.994253
554,0.988914
555,0.979408
556,0.963737
557,0.957145
558,0.936421
559,0.899526
560,0.873158
561,0.843132
562,0.806013
563,0.796125
564,0.764579
565,0.749161
566,0.737625
567,0.707013
568,0.699316
569,0.689428
570,0.674671
571,0.656961
572,0.6515
573,0.648204
574,0.642447
575,0.640022
576,0.637825
577,0.636842
578,0.640572
579,0.647336
580,0.673658
581,0.680909
582,0.688161
583,0.695412
584,0.693912
585,0.705998
586,0.718083
587,0.741191
588,0.751079
589,0.766671
590,0.780033
591,0.796658
592,0.819447
593,0.836046
594,0.845934
595,0.874059
596,0.876037
597,0.878014
598,0.879992
599,0.880276
600,0.873684
601,0.863132
602,0.849947
603,0.836763
604,0.818211
605,0.773421
606,0.714296
607,0.697704
608,0.628632
609,0.594082
610,0.575395
611,0.548346
612,0.502
613,0.456638
614,0.439013
615,0.394594
616,0.382509
617,0.370423
618,0.345947
619,0.309526
620,0.283158
621,0.260485
622,0.239559
623,0.215454
624,0.203368
625,0.191283
626,0.178263
627,0.165079
628,0.154145
629,0.145905
630,0.140493
631,0.134831
632,0.12714
633,0.11945
634,0.109855
635,0.100855
636,0.0942632
637,0.0876711
638,0.0812664
639,0.0771464
640,0.0730263
641,0.06890625
642,0.0640592
643,0.0598207
644,0.0573487
645,0.0548766
646,0.0525811
647,0.0520318
648,0.0514825
649,0.0509331
650,0.0503838
651,0.05
652,0.05
653,0.05
654,0.05
655,0.05
656,0.05
657,0.05
658,0.05
659,0.05
660,0.0495113
661,0.0485695
662,0.0476278
663,0.0466861
664,0.0457444
665,0.0448026
666,0.0443536
667,0.0439416
668,0.0435296
669,0.0431176
670,0.0427056
671,0.0422936
672,0.0419263
673,0.0415967
674,0.0412671
675,0.0409375
676,0.0406079
677,0.0402783
678,0.0399487
679,0.0396191
680,0.0394737
681,0.0394737
682,0.0394737
683,0.0394737
684,0.0394737
685,0.0394737
686,0.0394737
687,0.0394737
688,0.0394737
689,0.0394737
690,0.0391155
691,0.0387493
692,0.038383
693,0.0380168
694,0.0376506
695,0.0372844
696,0.0369181
697,0.0368421
698,0.0368421
699,0.0368421
700,0.0368421
701,0.0368421
702,0.0368421
703,0.0368421
704,0.0368421
705,0.0368421
706,0.0368421
707,0.0368421
708,0.0368421
709,0.0368421
710,0.0368421
711,0.0368421
712,0.0368421
713,0.0368421
714,0.0368421
715,0.0362359
716,0.0348233
717,0.0334107
718,0.0319981
719,0.0305855
720,0.0291729
721,0.0289474
722,0.0289474
723,0.0289474
724,0.0292519
725,0.0297227
726,0.0301936
727,0.0306645
728,0.0311353
729,0.0315789
730,0.0315789
731,0.0315789
732,0.0315789
733,0.0315789
734,0.0315789
735,0.0315789
736,0.0315789
737,0.0315789
738,0.0315789
739,0.0315789
740,0.0315789
741,0.0315789
742,0.0315789
743,0.0315789
744,0.0315789
745,0.0315789
746,0.0315789
747,0.0315789
748,0.0314263
749,0.0312066
750,0.0309868
751,0.0307671
752,0.0305474
753,0.0303276
754,0.0301079
755,0.0298882
756,0.0296684
757,0.0294487
758,0.0292289
759,0.0290092
760,0.0289474
761,0.0289474
762,0.0289474
763,0.0289474
764,0.0289474
765,0.0289474
766,0.0289474
767,0.0289474
768,0.0289474
769,0.0289474
770,0.0289474
771,0.0289474
772,0.0289474
773,0.0289474
774,0.0289474
775,0.0289474
776,0.0289474
777,0.0289474
778,0.0289474
779,0.0289474