File: conjugated_ECPs/uv_vis_automated/Polymer Chemistry, 11, 2173 – 2181, 2020/metadata/P(LAcDOT-BAcDOT).csv
Wavelength (nm),Absorbance
360,0.140518
361,0.142111
362,0.143804
363,0.145574
364,0.147345
365,0.149115
366,0.150922
367,0.152843
368,0.154763
369,0.156684
370,0.158604
371,0.160764
372,0.162943
373,0.165123
374,0.167302
375,0.169426
376,0.171515
377,0.173605
378,0.175694
379,0.177925
380,0.180494
381,0.183063
382,0.185631
383,0.1882
384,0.190787
385,0.193375
386,0.195963
387,0.198551
388,0.201184
389,0.20384
390,0.206496
391,0.209152
392,0.211917
393,0.214886
394,0.217855
395,0.220824
396,0.2238
397,0.226984
398,0.230167
399,0.23335
400,0.236534
401,0.24004
402,0.243578
403,0.247115
404,0.250652
405,0.254375
406,0.258146
407,0.261917
408,0.265688
409,0.26945
410,0.273211
411,0.276973
412,0.280976
413,0.285066
414,0.289157
415,0.293241
416,0.297315
417,0.301389
418,0.305501
419,0.310176
420,0.314851
421,0.319525
422,0.324271
423,0.329042
424,0.333813
425,0.3388
426,0.343845
427,0.348886
428,0.35383
429,0.358774
430,0.363816
431,0.369097
432,0.374377
433,0.379925
434,0.385697
435,0.391468
436,0.397236
437,0.403004
438,0.408801
439,0.414615
440,0.42064
441,0.427186
442,0.433733
443,0.440322
444,0.446914
445,0.453337
446,0.459639
447,0.466503
448,0.474383
449,0.481841
450,0.488128
451,0.494415
452,0.501919
453,0.509429
454,0.517267
455,0.525122
456,0.533622
457,0.541564
458,0.547512
459,0.55346
460,0.561619
461,0.570089
462,0.576772
463,0.583456
464,0.589729
465,0.595863
466,0.602875
467,0.611238
468,0.618895
469,0.626136
470,0.633029
471,0.639529
472,0.646103
473,0.653224
474,0.660346
475,0.667908
476,0.675489
477,0.682309
478,0.689128
479,0.697274
480,0.705559
481,0.714709
482,0.723856
483,0.731767
484,0.739644
485,0.747335
486,0.755026
487,0.763565
488,0.771711
489,0.778503
490,0.785278
491,0.791824
492,0.798371
493,0.804444
494,0.809949
495,0.814722
496,0.819494
497,0.824267
498,0.82904
499,0.833813
500,0.837122
501,0.840173
502,0.843224
503,0.846275
504,0.849129
505,0.851813
506,0.854496
507,0.857179
508,0.860003
509,0.86333
510,0.866658
511,0.869986
512,0.874177
513,0.879263
514,0.884348
515,0.889777
516,0.895487
517,0.901198
518,0.908069
519,0.91494
520,0.922519
521,0.930232
522,0.937655
523,0.945038
524,0.951631
525,0.958153
526,0.964119
527,0.969908
528,0.975391
529,0.979719
530,0.984047
531,0.988375
532,0.990884
533,0.992532
534,0.99418
535,0.995828
536,0.996794
537,0.996566
538,0.996338
539,0.993459
540,0.988933
541,0.984408
542,0.979882
543,0.975357
544,0.968667
545,0.961761
546,0.953949
547,0.94541
548,0.936871
549,0.928332
550,0.920045
551,0.912084
552,0.904007
553,0.895625
554,0.887253
555,0.883741
556,0.880229
557,0.876717
558,0.873206
559,0.874011
560,0.874815
561,0.875619
562,0.878436
563,0.886608
564,0.893651
565,0.898373
566,0.903096
567,0.908703
568,0.915822
569,0.923535
570,0.932112
571,0.940256
572,0.945775
573,0.951293
574,0.956461
575,0.961281
576,0.966102
577,0.970922
578,0.97321
579,0.975426
580,0.977642
581,0.979858
582,0.978362
583,0.976225
584,0.974088
585,0.97164
586,0.967025
587,0.960948
588,0.947417
589,0.933886
590,0.918644
591,0.904235
592,0.887759
593,0.860856
594,0.83375
595,0.819014
596,0.77555
597,0.73638
598,0.713449
599,0.671373
600,0.638601
601,0.60558
602,0.550224
603,0.522649
604,0.477666
605,0.445562
606,0.412271
607,0.380751
608,0.354582
609,0.322886
610,0.302037
611,0.279644
612,0.260425
613,0.241178
614,0.221552
615,0.207944
616,0.190478
617,0.179283
618,0.169135
619,0.160039
620,0.152683
621,0.145351
622,0.1381
623,0.130988
624,0.125739
625,0.12049
626,0.115365
627,0.111092
628,0.106819
629,0.102547
630,0.0991324
631,0.0962997
632,0.093467
633,0.0906343
634,0.0878016
635,0.0849689
636,0.0821363
637,0.0793036
638,0.0773499
639,0.0755226
640,0.0736954
641,0.0718681
642,0.0700409
643,0.0682136
644,0.06667
645,0.0651278
646,0.0635855
647,0.0620432
648,0.0606672
649,0.0594278
650,0.0581883
651,0.0569489
652,0.0557508
653,0.0546884
654,0.0536261
655,0.0525637
656,0.0515014
657,0.0506852
658,0.0498912
659,0.0490971
660,0.0478519
661,0.0465951
662,0.0453384
663,0.0440817
664,0.042825
665,0.0415682
666,0.0403115
667,0.0394737
668,0.0394737
669,0.0394737
670,0.0394737
671,0.0394737
672,0.0394737
673,0.0394737
674,0.0391272
675,0.038761
676,0.0383947
677,0.0380285
678,0.0376623
679,0.0372961
680,0.0369298
681,0.0365636
682,0.0361974
683,0.0358311
684,0.0354649
685,0.0350987
686,0.0347325
687,0.0343662
688,0.0335789
689,0.0324803
690,0.0313816
691,0.0302829
692,0.0291842
693,0.0276827
694,0.0260706
695,0.0244584
696,0.0233612
697,0.023511
698,0.0236609
699,0.0238107
700,0.0239605
701,0.0235916
702,0.0232102
703,0.0228288
704,0.0224475
705,0.0220321
706,0.0215993
707,0.0211665
708,0.020744
709,0.0203909
710,0.0200377
711,0.0196846
712,0.0193314
713,0.0189783
714,0.01881
715,0.0187468
716,0.0186837
717,0.0186206
718,0.0185574
719,0.0184943
720,0.0184311
721,0.0184211
722,0.0184211
723,0.0184211
724,0.0184211
725,0.0184211
726,0.0184211
727,0.0184211
728,0.0184211
729,0.0184211
730,0.0184211
731,0.0184211
732,0.0184211
733,0.0184211
734,0.0184211
735,0.0184211
736,0.0184211
737,0.0184211
738,0.0184211
739,0.0184211
740,0.0184211
741,0.0184211
742,0.0184211
743,0.0184211
744,0.0184211
745,0.0184211
746,0.0184211
747,0.0184211
748,0.0184211
749,0.0184211
750,0.0184211
751,0.0184211
752,0.0184211
753,0.0184211
754,0.0184211
755,0.0184211
756,0.0184211
757,0.0184211
758,0.0184211
759,0.0184211
760,0.0184211
761,0.0184211
762,0.0184211
763,0.0184211
764,0.0184211
765,0.0184211
766,0.0184211
767,0.0184211
768,0.0184211
769,0.0184211
770,0.0184211
771,0.0184211
772,0.0184211
773,0.0184211
774,0.0184211
775,0.0184211
776,0.0184211
777,0.0184211
778,0.0184211
779,0.0184211