File: conjugated_ECPs/uv_vis_automated/Polymer Chemistry, 11, 2173 – 2181, 2020/metadata/P(LAcDOT-DMP).csv
Wavelength (nm),Absorbance
360,0.0958553
361,0.0983273
362,0.1
363,0.1
364,0.1
365,0.1
366,0.1
367,0.1
368,0.1
369,0.101851
370,0.103829
371,0.105807
372,0.107784
373,0.108932
374,0.110031
375,0.111129
376,0.112228
377,0.113158
378,0.113158
379,0.114305
380,0.116365
381,0.118425
382,0.120485
383,0.122545
384,0.124605
385,0.126539
386,0.127858
387,0.129176
388,0.130495
389,0.132081
390,0.134906
391,0.137731
392,0.140556
393,0.143382
394,0.146207
395,0.148015
396,0.149114
397,0.150213
398,0.151311
399,0.15241
400,0.153509
401,0.154607
402,0.156371
403,0.159117
404,0.161864
405,0.164611
406,0.167357
407,0.170441
408,0.173737
409,0.177033
410,0.179776
411,0.181754
412,0.183732
413,0.185709
414,0.18825
415,0.191546
416,0.194842
417,0.198138
418,0.201434
419,0.20473
420,0.208004
421,0.210751
422,0.213498
423,0.216245
424,0.218991
425,0.222286
426,0.22723
427,0.23074
428,0.233487
429,0.236234
430,0.23898
431,0.241727
432,0.246368
433,0.250875
434,0.254171
435,0.257467
436,0.261474
437,0.272254
438,0.276649
439,0.281044
440,0.289649
441,0.291846
442,0.294044
443,0.301507
444,0.307013
445,0.31148
446,0.314776
447,0.318072
448,0.321368
449,0.3254
450,0.331168
451,0.336936
452,0.342961
453,0.351201
454,0.357352
455,0.361472
456,0.365592
457,0.370143
458,0.375636
459,0.381129
460,0.387632
461,0.394224
462,0.405045
463,0.409659
464,0.414274
465,0.418888
466,0.425719
467,0.434509
468,0.442851
469,0.448344
470,0.453838
471,0.462586
472,0.471842
473,0.477336
474,0.482829
475,0.487911
476,0.493272
477,0.500963
478,0.508654
479,0.51676
480,0.524605
481,0.530373
482,0.536141
483,0.54191
484,0.553737
485,0.560329
486,0.566921
487,0.577332
488,0.587614
489,0.592009
490,0.596404
491,0.606372
492,0.617605
493,0.6258
494,0.631294
495,0.636787
496,0.646632
497,0.655656
498,0.663346
499,0.671037
500,0.680921
501,0.689865
502,0.697398
503,0.704932
504,0.713495
505,0.722724
506,0.731852
507,0.740916
508,0.74998
509,0.759159
510,0.768498
511,0.7778125
512,0.786053
513,0.794293
514,0.8015
515,0.808092
516,0.814684
517,0.81963
518,0.824245
519,0.828859
520,0.833474
521,0.836673
522,0.839602
523,0.842532
524,0.845281
525,0.847478
526,0.849675
527,0.851873
528,0.85407
529,0.856016
530,0.857664
531,0.8593125
532,0.861147
533,0.863501
534,0.865855
535,0.86821
536,0.870564
537,0.872918
538,0.876861
539,0.88157
540,0.886278
541,0.894386
542,0.902955
543,0.910942
544,0.918853
545,0.927544
546,0.936333
547,0.944364
548,0.951616
549,0.95772
550,0.962664
551,0.967609
552,0.972553
553,0.977497
554,0.982441
555,0.987113
556,0.989586
557,0.992058
558,0.99453
559,0.994737
560,0.994737
561,0.994737
562,0.994737
563,0.994322
564,0.991026
565,0.98773
566,0.980822
567,0.972913
568,0.967145
569,0.961377
570,0.955609
571,0.944114
572,0.939719
573,0.935325
574,0.912237
575,0.903235
576,0.895544
577,0.883905
578,0.869072
579,0.860543
580,0.851711
581,0.841822
582,0.833191
583,0.825588
584,0.821193
585,0.816798
586,0.810711
587,0.804118
588,0.797526
589,0.794737
590,0.794737
591,0.794737
592,0.794737
593,0.797628
594,0.802572
595,0.815658
596,0.825618
597,0.8305625
598,0.835507
599,0.840125
600,0.843421
601,0.846717
602,0.850009
603,0.852206
604,0.854404
605,0.857939
606,0.862333
607,0.865367
608,0.863389
609,0.861412
610,0.859434
611,0.856799
612,0.851855
613,0.847426
614,0.843306
615,0.839186
616,0.833289
617,0.825049
618,0.815345
619,0.802985
620,0.786645
621,0.764164
622,0.729757
623,0.716602
624,0.699947
625,0.6765625
626,0.633526
627,0.620342
628,0.587987
629,0.573155
630,0.554276
631,0.496599
632,0.481158
633,0.474566
634,0.447987
635,0.423059
636,0.410974
637,0.398888
638,0.374125
639,0.362132
640,0.343158
641,0.320362
642,0.301759
643,0.282138
644,0.264053
645,0.251842
646,0.243053
647,0.233457
648,0.221921
649,0.204645
650,0.186184
651,0.179592
652,0.174243
653,0.170123
654,0.166003
655,0.158569
656,0.143737
657,0.135951
658,0.131007
659,0.1260625
660,0.116842
661,0.110783
662,0.107324
663,0.102709
664,0.0980947
665,0.0934803
666,0.089148
667,0.086676
668,0.0842039
669,0.0817319
670,0.0790022
671,0.0762555
672,0.0735088
673,0.0707621
674,0.0679342
675,0.0646382
676,0.0613421
677,0.0580461
678,0.0549553
679,0.0529776
680,0.051
681,0.0490224
682,0.0462895
683,0.0418043
684,0.0409803
685,0.04015625
686,0.0392312
687,0.0378186
688,0.036406
689,0.0349934
690,0.0335808
691,0.0321682
692,0.0310301
693,0.0300883
694,0.0291466
695,0.0282049
696,0.0272632
697,0.0263214
698,0.0252237
699,0.024125
700,0.0230263
701,0.0219276
702,0.0208289
703,0.0197303
704,0.0186316
705,0.0172791
706,0.0158665
707,0.0144539
708,0.0130414
709,0.0116288
710,0.0105263
711,0.0105263
712,0.0105263
713,0.0105263
714,0.0105263
715,0.0105263
716,0.0105263
717,0.0105263
718,0.0105263
719,0.0105263
720,0.0102632
721,0.00985115
722,0.00943914
723,0.00902714
724,0.00861513
725,0.008203125
726,0.00789474
727,0.00789474
728,0.00789474
729,0.00789474
730,0.00789474
731,0.00789474
732,0.00789474
733,0.00765735
734,0.00738268
735,0.007108
736,0.00683333
737,0.00655866
738,0.00628399
739,0.00600932
740,0.00573465
741,0.00545998
742,0.00518531
743,0.00491064
744,0.00463596
745,0.00436129
746,0.00408662
747,0.00381195
748,0.00353728
749,0.00326261
750,0.00298794
751,0.00271327
752,0.00288889
753,0.00325512
754,0.00362135
755,0.00398757
756,0.0043538
757,0.00472003
758,0.00508626
759,0.00526316
760,0.00526316
761,0.00526316
762,0.00526316
763,0.00526316
764,0.00526316
765,0.00526316
766,0.00526316
767,0.00526316
768,0.00526316
769,0.00502581
770,0.00477227
771,0.00451872
772,0.00426518
773,0.00401164
774,0.0037581
775,0.00350455
776,0.00325101
777,0.00299747
778,0.00274393
779,0.00263158