File: conjugated_ECPs/uv_vis_automated/Adv. Mater.2010,22,724–728/metadata/P1.csv
Wavelength (nm),Absorbance
360,0.365076
361,0.366643
362,0.368211
363,0.369779
364,0.371347
365,0.372839
366,0.373896
367,0.374952
368,0.376009
369,0.377065
370,0.378122
371,0.379178
372,0.380235
373,0.381291
374,0.382348
375,0.383404
376,0.386488
377,0.39044
378,0.394393
379,0.398345
380,0.402297
381,0.406249
382,0.410201
383,0.414153
384,0.418105
385,0.422014
386,0.425824
387,0.429634
388,0.433444
389,0.437254
390,0.441064
391,0.44502
392,0.453726
393,0.462432
394,0.471138
395,0.477766
396,0.480094
397,0.482422
398,0.48475
399,0.487079
400,0.489407
401,0.491735
402,0.494063
403,0.498871
404,0.504047
405,0.509223
406,0.514399
407,0.519575
408,0.524751
409,0.529927
410,0.538277
411,0.546674
412,0.555071
413,0.563468
414,0.570167
415,0.576177
416,0.582187
417,0.588197
418,0.594208
419,0.597749
420,0.601195
421,0.60464
422,0.608086
423,0.611532
424,0.615188
425,0.619032
426,0.622876
427,0.62672
428,0.630564
429,0.634408
430,0.638252
431,0.649569
432,0.664368
433,0.670701
434,0.67384
435,0.676979
436,0.680118
437,0.683258
438,0.686397
439,0.689811
440,0.693271
441,0.69673
442,0.70019
443,0.703649
444,0.707109
445,0.710564
446,0.713639
447,0.716714
448,0.719789
449,0.722865
450,0.72594
451,0.729015
452,0.731877
453,0.733671
454,0.735465
455,0.737259
456,0.739053
457,0.740846
458,0.74264
459,0.744434
460,0.746228
461,0.746948
462,0.745795
463,0.744642
464,0.743489
465,0.742336
466,0.741182
467,0.740029
468,0.738776
469,0.737431
470,0.736086
471,0.73474
472,0.733395
473,0.732049
474,0.729479
475,0.72625
476,0.723021
477,0.719792
478,0.716563
479,0.714562
480,0.712947
481,0.711333
482,0.709718
483,0.708104
484,0.699697
485,0.69028
486,0.688243
487,0.686898
488,0.685553
489,0.684207
490,0.682862
491,0.681364
492,0.676739
493,0.672114
494,0.66749
495,0.662865
496,0.65824
497,0.653381
498,0.648373
499,0.643365
500,0.638358
501,0.63335
502,0.628342
503,0.624238
504,0.620221
505,0.616204
506,0.612187
507,0.60817
508,0.604153
509,0.600136
510,0.596119
511,0.595019
512,0.594474
513,0.593929
514,0.593384
515,0.59284
516,0.592295
517,0.59175
518,0.591205
519,0.59066
520,0.590115
521,0.590893
522,0.593712
523,0.596531
524,0.59935
525,0.602168
526,0.604987
527,0.607806
528,0.610625
529,0.613444
530,0.618193
531,0.623293
532,0.628394
533,0.633495
534,0.638595
535,0.643696
536,0.648936
537,0.654244
538,0.659552
539,0.664861
540,0.670169
541,0.675824
542,0.681905
543,0.687986
544,0.694068
545,0.700149
546,0.706569
547,0.713135
548,0.7197
549,0.726266
550,0.732831
551,0.738987
552,0.745122
553,0.751257
554,0.757392
555,0.763516
556,0.769597
557,0.775679
558,0.78176
559,0.787841
560,0.794069
561,0.800473
562,0.806877
563,0.813281
564,0.819685
565,0.826051
566,0.832402
567,0.838752
568,0.845102
569,0.851452
570,0.857081
571,0.862678
572,0.868275
573,0.873872
574,0.879442
575,0.884914
576,0.890385
577,0.895856
578,0.901328
579,0.906799
580,0.911623
581,0.916438
582,0.921253
583,0.926068
584,0.930883
585,0.935697
586,0.939715
587,0.943548
588,0.947382
589,0.951215
590,0.955048
591,0.958882
592,0.962715
593,0.96625
594,0.968691
595,0.971131
596,0.973572
597,0.976013
598,0.978453
599,0.980894
600,0.983335
601,0.985776
602,0.988216
603,0.989006
604,0.989145
605,0.989283
606,0.989422
607,0.989561
608,0.989699
609,0.989838
610,0.989976
611,0.990115
612,0.990254
613,0.990175
614,0.989507
615,0.98884
616,0.988173
617,0.987506
618,0.986839
619,0.986172
620,0.985504
621,0.984837
622,0.98417
623,0.983503
624,0.981461
625,0.976456
626,0.971451
627,0.9664458
628,0.961441
629,0.956435
630,0.95143
631,0.946488
632,0.941762
633,0.937036
634,0.93231
635,0.927583
636,0.922857
637,0.918036
638,0.911491
639,0.904946
640,0.898402
641,0.891857
642,0.885312
643,0.878767
644,0.872222
645,0.865174
646,0.857522
647,0.84987
648,0.842218
649,0.8344011
650,0.826497
651,0.818593
652,0.810689
653,0.802091
654,0.793378
655,0.784665
656,0.775736
657,0.766617
658,0.757498
659,0.747357
660,0.736744
661,0.72613
662,0.714799
663,0.703326
664,0.691853
665,0.681926
666,0.672023
667,0.661961
668,0.650899
669,0.639837
670,0.628388
671,0.615981
672,0.603573
673,0.591231
674,0.578973
675,0.566715
676,0.554584
677,0.542542
678,0.5305
679,0.517653
680,0.504523
681,0.492153
682,0.481101
683,0.47005
684,0.458942
685,0.446535
686,0.434127
687,0.421777
688,0.409669
689,0.39756
690,0.3854
691,0.373142
692,0.360884
693,0.348995
694,0.337485
695,0.325974
696,0.315331
697,0.305165
698,0.295
699,0.284835
700,0.27467
701,0.264505
702,0.254198
703,0.243883
704,0.233629
705,0.223938
706,0.214248
707,0.206789
708,0.199614
709,0.192439
710,0.184408
711,0.176336
712,0.168298
713,0.16202
714,0.155741
715,0.149539
716,0.144158
717,0.138893
718,0.134408
719,0.129923
720,0.125395
721,0.120686
722,0.115977
723,0.111268
724,0.106114
725,0.0998355
726,0.093557
727,0.0885329
728,0.0858421
729,0.0831513
730,0.0804605
731,0.0777697
732,0.0750789
733,0.0719269
734,0.0682786
735,0.0654631
736,0.0638492
737,0.0622354
738,0.0606216
739,0.05900773
740,0.0573939
741,0.0557801
742,0.053159
743,0.0500632
744,0.0469675
745,0.0442859
746,0.0427877
747,0.0412895
748,0.0397913
749,0.0382931
750,0.0367949
751,0.0352968
752,0.0337986
753,0.0323004
754,0.0308022
755,0.029331
756,0.02811005
757,0.0268891
758,0.0256682
759,0.0244473
760,0.0232264
761,0.0220054
762,0.0207845
763,0.0195636
764,0.0183427
765,0.0171218
766,0.0162409
767,0.0159507
768,0.0156605
769,0.01537029
770,0.0150801
771,0.01478988
772,0.0144997
773,0.01420947
774,0.0139193
775,0.01362906
776,0.0133389
777,0.0129935
778,0.0126433
779,0.012293
780,0.0119428
781,0.0115925
782,0.0112423
783,0.010892
784,0.0105418
785,0.0101915
786,0.009841277
787,0.009512876
788,0.009208958
789,0.008905039
790,0.008601121
791,0.008297202
792,0.007993284
793,0.007689366
794,0.007385447
795,0.007081529
796,0.006777611
797,0.00646632
798,0.005863138
799,0.005259955