File: conjugated_ECPs/uv_vis_automated/Adv. Mater.2010,22,724–728/metadata/P2.txt
Wavelength (nm)	Absorbance
360	0.335066
361	0.337084
362	0.339102
363	0.34112
364	0.343138
365	0.345188
366	0.347358
367	0.349528
368	0.351698
369	0.353868
370	0.356038
371	0.359738
372	0.365316
373	0.370893
374	0.376471
375	0.382049
376	0.388458
377	0.395223
378	0.401988
379	0.406558
380	0.409067
381	0.411576
382	0.414085
383	0.416594
384	0.419103
385	0.422014
386	0.425824
387	0.429634
388	0.433444
389	0.437254
390	0.441064
391	0.44502
392	0.453726
393	0.462432
394	0.471138
395	0.477766
396	0.480094
397	0.482422
398	0.48475
399	0.487079
400	0.489407
401	0.491735
402	0.494063
403	0.500291
404	0.507099
405	0.513607
406	0.517691
407	0.521775
408	0.52586
409	0.529944
410	0.538306
411	0.546733
412	0.55516
413	0.563587
414	0.570345
415	0.576426
416	0.582507
417	0.588588
418	0.59467
419	0.607504
420	0.620599
421	0.632701
422	0.63706
423	0.641419
424	0.645777
425	0.650136
426	0.654495
427	0.658853
428	0.661947
429	0.664254
430	0.66656
431	0.668867
432	0.671173
433	0.673479
434	0.675786
435	0.675487
436	0.674411
437	0.673334
438	0.672258
439	0.671182
440	0.670105
441	0.669029
442	0.667953
443	0.666876
444	0.6658
445	0.662681
446	0.659542
447	0.656402
448	0.653263
449	0.650124
450	0.646776
451	0.641933
452	0.637089
453	0.632246
454	0.627403
455	0.621934
456	0.6144
457	0.606866
458	0.599332
459	0.591797
460	0.582237
461	0.568783
462	0.558655
463	0.553812
464	0.548968
465	0.544125
466	0.539282
467	0.5315
468	0.520737
469	0.509974
470	0.494671
471	0.483304
472	0.47725
473	0.471196
474	0.465141
475	0.446875
476	0.435737
477	0.430355
478	0.424974
479	0.419592
480	0.414211
481	0.408829
482	0.403447
483	0.396924
484	0.390197
485	0.38347
486	0.376743
487	0.373292
488	0.370063
489	0.366834
490	0.363605
491	0.360529
492	0.360577
493	0.360626
494	0.360674
495	0.360723
496	0.360771
497	0.36082
498	0.3608685
499	0.360917
500	0.361749
501	0.364526
502	0.367304
503	0.370082
504	0.37286
505	0.375637
506	0.378415
507	0.381193
508	0.383971
509	0.386749
510	0.390512
511	0.394537
512	0.398563
513	0.402588
514	0.406614
515	0.4106392
516	0.414805
517	0.419819
518	0.424834
519	0.429849
520	0.434863
521	0.439878
522	0.445092
523	0.450325
524	0.4555566
525	0.460789
526	0.466021
527	0.471319
528	0.47685
529	0.482381
530	0.487912
531	0.493443
532	0.498974
533	0.504835
534	0.511
535	0.517164
536	0.523328
537	0.529493
538	0.53568
539	0.541923
540	0.5481657
541	0.554408
542	0.560651
543	0.566795
544	0.572858
545	0.578922
546	0.584985
547	0.591048
548	0.597659
549	0.604406
550	0.611153
551	0.6179
552	0.624636
553	0.631363
554	0.63809
555	0.644817
556	0.651373
557	0.657428
558	0.663482
559	0.669536
560	0.67559
561	0.682611
562	0.689652
563	0.696693
564	0.703734
565	0.710287
566	0.716638
567	0.722988
568	0.729338
569	0.735688
570	0.741987
571	0.748284
572	0.75458
573	0.760876
574	0.767173
575	0.773469
576	0.779766
577	0.786062
578	0.792359
579	0.798757
580	0.805275
581	0.811792
582	0.81831
583	0.824733
584	0.830742
585	0.836752
586	0.842761
587	0.848771
588	0.854598
589	0.860192
590	0.865785
591	0.871379
592	0.876972
593	0.882536
594	0.887991
595	0.893446
596	0.898901
597	0.904356
598	0.909811
599	0.914416
600	0.919012
601	0.923609
602	0.928206
603	0.932803
604	0.937217
605	0.941189
606	0.9451609
607	0.949133
608	0.953105
609	0.957077
610	0.961049
611	0.965602
612	0.970475
613	0.975348
614	0.980221
615	0.985094
616	0.988154
617	0.98872
618	0.989286
619	0.989851
620	0.990417
621	0.990983
622	0.991549
623	0.992105
624	0.992105
625	0.992105
626	0.992105
627	0.992105
628	0.992105
629	0.992105
630	0.992105
631	0.992019
632	0.991573
633	0.991127
634	0.990681
635	0.990235
636	0.989788
637	0.988668
638	0.986396
639	0.984123
640	0.98185
641	0.979577
642	0.977305
643	0.975032
644	0.972759
645	0.970486
646	0.96811
647	0.962389
648	0.956669
649	0.950948
650	0.945227
651	0.939507
652	0.933786
653	0.955614
654	0.948699
655	0.941785
656	0.934871
657	0.9279563
658	0.921042
659	0.914128
660	0.907812
661	0.901712
662	0.895613
663	0.889514
664	0.882778
665	0.875294
666	0.86781
667	0.860327
668	0.852263
669	0.843902
670	0.835541
671	0.826925
672	0.817806
673	0.808687
674	0.798444
675	0.787021
676	0.775598
677	0.764244
678	0.753244
679	0.742244
680	0.731243
681	0.719438
682	0.707479
683	0.69552
684	0.681656
685	0.667775
686	0.653785
687	0.63914
688	0.624494
689	0.610124
690	0.595837
691	0.581549
692	0.56726
693	0.552937
694	0.536859
695	0.520541
696	0.502453
697	0.486427
698	0.47379
699	0.460244
700	0.444772
701	0.430036
702	0.416313
703	0.402519
704	0.387271
705	0.372023
706	0.356953
707	0.342602
708	0.328251
709	0.314716
710	0.302707
711	0.290698
712	0.279113
713	0.267951
714	0.256789
715	0.245789
716	0.234877
717	0.223964
718	0.215093
719	0.206728
720	0.197619
721	0.185444
722	0.17327
723	0.163562
724	0.155658
725	0.147754
726	0.13985
727	0.132629
728	0.125603
729	0.118577
730	0.111551
731	0.103461
732	0.0943276
733	0.0851941
734	0.0760605
735	0.066927
736	0.063141
737	0.0610772
738	0.0590133
739	0.0569494
740	0.0548855
741	0.0528216
742	0.0507577
743	0.0486938
744	0.0466299
745	0.044566
746	0.0426417
747	0.0410287
748	0.0394156
749	0.0378026
750	0.0361895
751	0.0345765
752	0.03296346
753	0.03135042
754	0.0297374
755	0.0281243
756	0.026548
757	0.0256333
758	0.0247187
759	0.0238041
760	0.0228894
761	0.0219748
762	0.02106014
763	0.0201455
764	0.0192309
765	0.0183162
766	0.0174016
767	0.0164869
768	0.0158477
769	0.0155241
770	0.0152006
771	0.014877
772	0.0145535
773	0.0142299
774	0.0139063
775	0.01358277
776	0.0132592
777	0.0129356
778	0.0126119
779	0.0122772
780	0.0119425
781	0.01160783
782	0.0112731
783	0.0109385
784	0.0106038
785	0.0102691
786	0.009934426
787	0.009599745
788	0.009265064
789	0.008936532
790	0.0086126
791	0.008288667
792	0.007964735
793	0.007640802
794	0.00731687
795	0.006992937
796	0.006669005
797	0.006345072
798	0.00602114
799	0.005645888