File: conjugated_ECPs/uv_vis_automated/Adv. Mater.2010,22,724–728/metadata/P3.csv
Wavelength (nm),Absorbance
360,0.320658
361,0.329316
362,0.332391
363,0.335466
364,0.338541
365,0.341617
366,0.344692
367,0.347767
368,0.354421
369,0.393167
370,0.396754
371,0.400342
372,0.4038
373,0.407029
374,0.410258
375,0.413487
376,0.416716
377,0.421278
378,0.427332
379,0.433387
380,0.439441
381,0.444742
382,0.449451
383,0.45416
384,0.458868
385,0.464013
386,0.469395
387,0.474776
388,0.478877
389,0.482465
390,0.486053
391,0.48999
392,0.494026
393,0.4980625
394,0.502099
395,0.503099
396,0.503637
397,0.504175
398,0.504713
399,0.505251
400,0.505789
401,0.506328
402,0.506866
403,0.507404
404,0.507705
405,0.505553
406,0.5034
407,0.501247
408,0.499095
409,0.49648
410,0.491996
411,0.487511
412,0.482789
413,0.477408
414,0.472026
415,0.466941
416,0.462456
417,0.457971
418,0.452421
419,0.445246
420,0.43807
421,0.430895
422,0.423719
423,0.416544
424,0.403211
425,0.393257
426,0.390566
427,0.387875
428,0.376895
429,0.364184
430,0.353421
431,0.346696
432,0.341853
433,0.337009
434,0.332166
435,0.327322
436,0.318855
437,0.3094375
438,0.28423
439,0.2748125
440,0.269539
441,0.264831
442,0.260122
443,0.255413
444,0.238224
445,0.231382
446,0.215513
447,0.194646
448,0.193032
449,0.191417
450,0.189803
451,0.188188
452,0.184829
453,0.17272
454,0.162705
455,0.160553
456,0.1584
457,0.156247
458,0.154095
459,0.152508
460,0.152124
461,0.15174
462,0.151355
463,0.150971
464,0.150586
465,0.150202
466,0.150142
467,0.150441
468,0.15074
469,0.151039
470,0.151338
471,0.151637
472,0.151936
473,0.152235
474,0.152534
475,0.153084
476,0.153757
477,0.154429
478,0.155102
479,0.155775
480,0.156447
481,0.15712
482,0.157793
483,0.1617
484,0.166184
485,0.170669
486,0.172693
487,0.174487
488,0.176281
489,0.178075
490,0.179868
491,0.181723
492,0.184819
493,0.187915
494,0.191012
495,0.194108
496,0.197204
497,0.2003
498,0.202583
499,0.204449
500,0.206315
501,0.208181
502,0.210047
503,0.211912
504,0.214102
505,0.216941
506,0.219781
507,0.22262
508,0.225459
509,0.228299
510,0.231138
511,0.233977
512,0.236816
513,0.239656
514,0.242895
515,0.246138
516,0.24938
517,0.252623
518,0.255866
519,0.259109
520,0.262351
521,0.265594
522,0.268837
523,0.272274
524,0.275782
525,0.27929
526,0.282798
527,0.286307
528,0.289815
529,0.293323
530,0.296831
531,0.30034
532,0.303848
533,0.307356
534,0.311178
535,0.315343
536,0.319508
537,0.323673
538,0.327838
539,0.332003
540,0.336168
541,0.340333
542,0.344498
543,0.348797
544,0.353207
545,0.357617
546,0.362027
547,0.366437
548,0.370847
549,0.375257
550,0.379666
551,0.384078
552,0.389143
553,0.394208
554,0.399273
555,0.404338
556,0.409403
557,0.414468
558,0.419533
559,0.424598
560,0.429673
561,0.434749
562,0.439824
563,0.4449
564,0.449976
565,0.455052
566,0.460128
567,0.465203
568,0.470279
569,0.475355
570,0.480756
571,0.486504
572,0.492253
573,0.498001
574,0.50375
575,0.510097
576,0.518156
577,0.526216
578,0.534275
579,0.542335
580,0.550185
581,0.553979
582,0.557772
583,0.561565
584,0.565358
585,0.569881
586,0.576216
587,0.58255
588,0.588885
589,0.595219
590,0.601554
591,0.608362
592,0.6155
593,0.622639
594,0.629777
595,0.636748
596,0.643445
597,0.650142
598,0.656839
599,0.663536
600,0.670037
601,0.676511
602,0.682986
603,0.689461
604,0.695935
605,0.702066
606,0.708121
607,0.714175
608,0.720275
609,0.728736
610,0.737198
611,0.743885
612,0.74992
613,0.755954
614,0.761988
615,0.771256
616,0.781114
617,0.790972
618,0.7951737
619,0.798641
620,0.802107
621,0.805574
622,0.809041
623,0.814505
624,0.824668
625,0.834426
626,0.837954
627,0.841482
628,0.845009
629,0.848537
630,0.852065
631,0.856434
632,0.861781
633,0.867127
634,0.872473
635,0.878018
636,0.884072
637,0.890127
638,0.896181
639,0.901159
640,0.904298
641,0.9074375
642,0.910577
643,0.913716
644,0.916855
645,0.921118
646,0.9265
647,0.931882
648,0.937263
649,0.940606
650,0.942528
651,0.94445
652,0.946372
653,0.948294
654,0.950216
655,0.952138
656,0.956232
657,0.961075
658,0.965918
659,0.970762
660,0.975605
661,0.977317
662,0.97849
663,0.979663
664,0.980836
665,0.982009
666,0.983183
667,0.984356
668,0.986203
669,0.988566
670,0.990929
671,0.993292
672,0.995655
673,0.998018
674,0.999928
675,0.999479
676,0.999031
677,0.998582
678,0.998134
679,0.997685
680,0.996307
681,0.992688
682,0.989069
683,0.98545
684,0.981831
685,0.978212
686,0.974593
687,0.970021
688,0.965247
689,0.960473
690,0.955699
691,0.950925
692,0.94615
693,0.941376
694,0.933947
695,0.924758
696,0.915569
697,0.90638
698,0.895463
699,0.882242
700,0.869022
701,0.859183
702,0.8504375
703,0.841692
704,0.832947
705,0.822651
706,0.812066
707,0.801482
708,0.790897
709,0.779351
710,0.766008
711,0.752664
712,0.742789
713,0.732923
714,0.723168
715,0.715051
716,0.706933
717,0.698816
718,0.690698
719,0.682581
720,0.671018
721,0.659078
722,0.649233
723,0.646031
724,0.64283
725,0.639628
726,0.636427
727,0.633225
728,0.630024
729,0.627617
730,0.626379
731,0.625141
732,0.623904
733,0.622666
734,0.621429
735,0.620191
736,0.618954
737,0.618486
738,0.618601
739,0.618716
740,0.618831
741,0.618946
742,0.619061
743,0.619176
744,0.61929
745,0.619405
746,0.61952
747,0.619635
748,0.61975
749,0.619956
750,0.62027
751,0.620584
752,0.620898
753,0.621211
754,0.621525
755,0.621839
756,0.622153
757,0.622467
758,0.62278
759,0.623094
760,0.623408
761,0.622959
762,0.616905
763,0.61085
764,0.604796
765,0.59813
766,0.589133
767,0.580135
768,0.571138
769,0.564038
770,0.558717
771,0.553396
772,0.521158
773,0.479175
774,0.472914
775,0.466652
776,0.460391
777,0.43824
778,0.409039
779,0.374059
780,0.3536
781,0.345617
782,0.337633
783,0.32965
784,0.321666
785,0.303843
786,0.279342
787,0.259882
788,0.234196
789,0.226804
790,0.219411
791,0.212019
792,0.198063
793,0.174368
794,0.162706
795,0.15284
796,0.142974
797,0.136601
798,0.130566
799,0.124531