File: conjugated_ECPs/uv_vis_automated/Macromolecules, 51, 22, 9250-9258, 2018/metadata/DMOT.csv
wavelength,absor
82,0.421053
83,0.409357
84,0.432749
85,0.438596
86,0.444444
87,0.450292
88,0.432749
89,0.461988
90,0.444444
91,0.473684
92,0.479532
93,0.461988
94,0.467836
95,0.502924
96,0.508772
97,0.491228
98,0.526316
99,0.532164
100,0.51462
101,0.538012
102,0.549708
103,0.526316
104,0.567251
105,0.570175
106,0.578947
107,0.590643
108,0.596491
109,0.602339
110,0.614035
111,0.619883
112,0.631579
113,0.637427
114,0.649123
115,0.654971
116,0.666667
117,0.678363
118,0.654971
119,0.695906
120,0.701754
121,0.71345
122,0.719298
123,0.730994
124,0.736842
125,0.719298
126,0.748538
127,0.766082
128,0.77193
129,0.777778
130,0.783626
131,0.795322
132,0.80117
133,0.812865
134,0.824561
135,0.830409
136,0.842105
137,0.818713
138,0.853801
139,0.859649
140,0.871345
141,0.877193
142,0.888889
143,0.865497
144,0.900585
145,0.906433
146,0.912281
147,0.918129
148,0.900585
149,0.906433
150,0.94152
151,0.923977
152,0.947368
153,0.935673
154,0.959064
155,0.964912
156,0.97076
157,0.976608
158,0.959064
159,0.982456
160,0.974659
161,0.984405
162,0.994152
163,0.997076
164,1
165,0.98538
166,0.988304
167,0.987524
168,0.986745
169,0.985965
170,0.985185
171,0.984405
172,0.983626
173,0.982846
174,0.982066
175,0.981287
176,0.980507
177,0.979727
178,0.978947
179,0.978168
180,0.977388
181,0.976608
182,0.975828
183,0.975049
184,0.974269
185,0.973489
186,0.97271
187,0.97193
188,0.97115
189,0.97037
190,0.969591
191,0.968811
192,0.968031
193,0.967251
194,0.966472
195,0.965692
196,0.964912
197,0.959064
198,0.959064
199,0.953216
200,0.947368
201,0.923977
202,0.94152
203,0.935673
204,0.906433
205,0.923977
206,0.906433
207,0.912281
208,0.894737
209,0.900585
210,0.883041
211,0.888889
212,0.883041
213,0.87232
214,0.861598
215,0.850877
216,0.840156
217,0.829435
218,0.818713
219,0.824561
220,0.830409
221,0.824561
222,0.818713
223,0.783626
224,0.807018
225,0.795322
226,0.789474
227,0.783626
228,0.754386
229,0.77193
230,0.766082
231,0.754386
232,0.725146
233,0.74269
234,0.736842
235,0.725146
236,0.719298
237,0.684211
238,0.678363
239,0.695906
240,0.684211
241,0.678363
242,0.643275
243,0.666667
244,0.654971
245,0.649123
246,0.631579
247,0.637427
248,0.606238
249,0.598441
250,0.590643
251,0.584795
252,0.602339
253,0.573099
254,0.590643
255,0.584795
256,0.549708
257,0.567251
258,0.561404
259,0.549708
260,0.52924
261,0.508772
262,0.532164
263,0.520468
264,0.51462
265,0.502924
266,0.497076
267,0.48538
268,0.444444
269,0.438596
270,0.461988
271,0.415205
272,0.444444
273,0.426901
274,0.415205
275,0.409357
276,0.397661
277,0.391813
278,0.358396
279,0.354219
280,0.350042
281,0.345865
282,0.341688
283,0.33751
284,0.333333
285,0.329156
286,0.324979
287,0.320802
288,0.316625
289,0.312448
290,0.308271
291,0.304094
292,0.298246
293,0.292398
294,0.269006
295,0.263158
296,0.280702
297,0.274854
298,0.25731
299,0.263158
300,0.245614
301,0.251462
302,0.245614
303,0.239766
304,0.233918
305,0.19883
306,0.222222
307,0.210526
308,0.204678
309,0.192982
310,0.181287
311,0.175439
312,0.163743
313,0.157895
314,0.146199
315,0.140351
316,0.128655
317,0.122807
318,0.102339
319,0.0818713
320,0.0701754
321,0.0935673
322,0.0818713
323,0.0526316
324,0.0467836
325,0.0643275
326,0.0584795
327,0.0526316
328,0.0292398
329,0.0350877
330,0.0409357
331,0.0380117
332,0.0350877
333,0.0304094
334,0.025731
335,0.0210526
336,0.0163743
337,0.0116959
338,0.0233918
339,0.0105263
340,0.00935673
341,0.00818713
342,0.00701754
343,0.00584795
344,0.00584795
345,0.0175439
346,0.0175439
347,0.0162907
348,0.0150376
349,0.0137845
350,0.0125313
351,0.0112782
352,0.0100251
353,0.00877193
354,0.0075188
355,0.00626566
356,0.00501253
357,0.0037594
358,0.00250627
359,0.00125313
360,0.0
361,0.0
362,0.0
363,0.0
364,0.0
365,0.0
366,0.0116959
367,0.0116959
368,0.0116959
369,0.0116959
370,0.0116959
371,0.0116959
372,0.0116959
373,0.0116959
374,0.0116959
375,0.0116959
376,0.0116959
377,0.0116959
378,0.0116959
379,0.0116959
380,0.0116959
381,0.0116959
382,0.0116959
383,0.0116959
384,0.0116959
385,0.0116959
386,0.0116959
387,0.0116959