File: conjugated_ECPs/uv_vis_automated/Macromolecules, 51, 22, 9250-9258, 2018/metadata/DMP.csv
wavelength,absor
56,0.344633
57,0.344633
58,0.344633
59,0.344633
60,0.344633
61,0.338983
62,0.333333
63,0.327684
64,0.322034
65,0.316384
66,0.305085
67,0.305085
68,0.299435
69,0.29661
70,0.293785
71,0.29096
72,0.288136
73,0.288136
74,0.282486
75,0.282486
76,0.282486
77,0.282486
78,0.276836
79,0.276836
80,0.276836
81,0.276836
82,0.276836
83,0.282486
84,0.282486
85,0.282486
86,0.282486
87,0.288136
88,0.288136
89,0.288136
90,0.293785
91,0.293785
92,0.293785
93,0.299435
94,0.299435
95,0.305085
96,0.305085
97,0.310734
98,0.316384
99,0.316384
100,0.316384
101,0.316384
102,0.310734
103,0.310734
104,0.310734
105,0.316384
106,0.322034
107,0.327684
108,0.333333
109,0.333333
110,0.344633
111,0.344633
112,0.350282
113,0.350282
114,0.361582
115,0.361582
116,0.372881
117,0.384181
118,0.384181
119,0.39548
120,0.39548
121,0.40678
122,0.412429
123,0.418079
124,0.423729
125,0.429379
126,0.429379
127,0.446328
128,0.446328
129,0.451977
130,0.457627
131,0.463277
132,0.474576
133,0.480226
134,0.478814
135,0.488701
136,0.498588
137,0.508475
138,0.518362
139,0.528249
140,0.538136
141,0.548023
142,0.55791
143,0.567797
144,0.577684
145,0.587571
146,0.59322
147,0.60452
148,0.615819
149,0.621469
150,0.627119
151,0.638418
152,0.649718
153,0.661017
154,0.661017
155,0.677966
156,0.689266
157,0.683616
158,0.694915
159,0.709981
160,0.725047
161,0.740113
162,0.740113
163,0.751412
164,0.751412
165,0.774011
166,0.774011
167,0.776836
168,0.785311
169,0.793785
170,0.80226
171,0.810734
172,0.819209
173,0.827684
174,0.836158
175,0.844633
176,0.853107
177,0.861582
178,0.870056
179,0.878531
180,0.887006
181,0.89548
182,0.903955
183,0.915254
184,0.920904
185,0.920904
186,0.932203
187,0.937853
188,0.937853
189,0.949153
190,0.949153
191,0.954802
192,0.954802
193,0.957627
194,0.966102
195,0.971751
196,0.971751
197,0.977401
198,0.983051
199,0.983051
200,0.988701
201,0.983051
202,0.986817
203,0.990584
204,0.99435
205,0.99435
206,0.996234
207,0.998117
208,1.0
209,1.0
210,1.0
211,1.0
212,1.0
213,1.0
214,0.99322
215,0.99209
216,0.99096
217,0.989831
218,0.988701
219,0.985876
220,0.983051
221,0.983051
222,0.983051
223,0.974576
224,0.971751
225,0.971751
226,0.966102
227,0.954802
228,0.960452
229,0.951036
230,0.947269
231,0.943503
232,0.943503
233,0.932203
234,0.926554
235,0.926554
236,0.915254
237,0.909605
238,0.903955
239,0.892655
240,0.887006
241,0.881356
242,0.870056
243,0.864407
244,0.847458
245,0.847458
246,0.836158
247,0.830508
248,0.809322
249,0.799435
250,0.789548
251,0.779661
252,0.779661
253,0.762712
254,0.751412
255,0.734463
256,0.728814
257,0.706215
258,0.706215
259,0.683616
260,0.683616
261,0.666667
262,0.661017
263,0.638418
264,0.632768
265,0.60452
266,0.59322
267,0.581921
268,0.570621
269,0.559322
270,0.553672
271,0.531073
272,0.525424
273,0.508475
274,0.491525
275,0.480226
276,0.463277
277,0.440678
278,0.440678
279,0.429379
280,0.40113
281,0.40113
282,0.378531
283,0.361582
284,0.344633
285,0.327684
286,0.310734
287,0.316384
288,0.288136
289,0.288136
290,0.271186
291,0.271186
292,0.254237
293,0.237288
294,0.231638
295,0.214689
296,0.20339
297,0.19209
298,0.186441
299,0.163842
300,0.163842
301,0.152542
302,0.146893
303,0.135593
304,0.129944
305,0.118644
306,0.112994
307,0.101695
308,0.0960452
309,0.0847458
310,0.079096
311,0.0734463
312,0.0677966
313,0.0564972
314,0.0564972
315,0.0508475
316,0.0451977
317,0.0451977
318,0.039548
319,0.0338983
320,0.0338983
321,0.0282486
322,0.0254237
323,0.0225989
324,0.0225989
325,0.0225989
326,0.0169492
327,0.0150659
328,0.0131827
329,0.0112994
330,0.0112994
331,0.0112994
332,0.0112994
333,0.0112994
334,0.0112994
335,0.00549278
336,0.00533584
337,0.00517891
338,0.00502197
339,0.00486503
340,0.0047081
341,0.00455116
342,0.00439422
343,0.00423729
344,0.00408035
345,0.00392341
346,0.00376648
347,0.00360954
348,0.00345261
349,0.00329567
350,0.00313873
351,0.0029818
352,0.00282486
353,0.00266792
354,0.00251099
355,0.00235405
356,0.00219711
357,0.00204018
358,0.00188324
359,0.0017263
360,0.00156937
361,0.00141243
362,0.00125549
363,0.00109856
364,0.00094162
365,0.000784683
366,0.000627746
367,0.00047081
368,0.000313873
369,0.000156937
370,0.0
371,0.0
372,0.0
373,0.0
374,0.0
375,0.0
376,0.0
377,0.0
378,0.0
379,0.0
380,0.0
381,0.0
382,0.0