File: conjugated_ECPs/uv_vis_automated/Macromol., 49, 6350-6359, 2016/metadata/Ac-Ac_EBE.csv
Wavelength (nm),Absorbance
400,0.876556
401,0.889659
402,0.90295
403,0.916525
404,0.930116
405,0.943975
406,0.957834
407,0.971761
408,0.985715
409,0.999634
410,1.01349
411,1.02737
412,1.04193
413,1.0565
414,1.07102
415,1.08555
416,1.09988
417,1.11412
418,1.12815
419,1.14172
420,1.1553
421,1.16915
422,1.18301
423,1.19662
424,1.21009
425,1.22373
426,1.2375
427,1.25087
428,1.26316
429,1.27545
430,1.28723
431,1.29865
432,1.31008
433,1.32107
434,1.33202
435,1.34297
436,1.35265
437,1.36219
438,1.37172
439,1.38063
440,1.38901
441,1.39739
442,1.40577
443,1.41231
444,1.41855
445,1.42479
446,1.43103
447,1.43727
448,1.44121
449,1.4447
450,1.44818
451,1.45167
452,1.45515
453,1.45863
454,1.46165
455,1.4616
456,1.46155
457,1.4615
458,1.46145
459,1.4614
460,1.46135
461,1.4613
462,1.45879
463,1.45551
464,1.45223
465,1.44895
466,1.44567
467,1.44238
468,1.43801
469,1.43197
470,1.42592
471,1.41988
472,1.41384
473,1.40624
474,1.39799
475,1.38974
476,1.38147
477,1.37176
478,1.36204
479,1.35232
480,1.3409
481,1.32948
482,1.31797
483,1.3063
484,1.29463
485,1.282
486,1.26884
487,1.25567
488,1.24152
489,1.22733
490,1.21291
491,1.19834
492,1.1835
493,1.16849
494,1.15401
495,1.13988
496,1.12523
497,1.11022
498,1.09521
499,1.0802
500,1.06482
501,1.04914
502,1.03384
503,1.01883
504,1.00406
505,0.989491
506,0.974922
507,0.960354
508,0.945884
509,0.931505
510,0.917498
511,0.905179
512,0.892859
513,0.87868
514,0.864136
515,0.850665
516,0.83742
517,0.824573
518,0.812157
519,0.79974
520,0.788118
521,0.776695
522,0.765256
523,0.753709
524,0.742161
525,0.731236
526,0.721104
527,0.710972
528,0.701261
529,0.692123
530,0.682984
531,0.673921
532,0.665805
533,0.65769
534,0.649575
535,0.641926
536,0.635013
537,0.6281
538,0.621187
539,0.614326
540,0.609017
541,0.603708
542,0.598399
543,0.59309
544,0.587781
545,0.583149
546,0.579846
547,0.576544
548,0.573241
549,0.569939
550,0.566636
551,0.563334
552,0.560675
553,0.55951
554,0.558344
555,0.557178
556,0.556012
557,0.554847
558,0.553681
559,0.552515
560,0.55355
561,0.554748
562,0.555947
563,0.557145
564,0.558344
565,0.559542
566,0.560741
567,0.563061
568,0.566262
569,0.569464
570,0.572666
571,0.575867
572,0.579069
573,0.582271
574,0.585705
575,0.59014
576,0.594575
577,0.59901
578,0.603445
579,0.60788
580,0.612314
581,0.61712
582,0.622314
583,0.627508
584,0.632702
585,0.637895
586,0.643089
587,0.648635
588,0.654274
589,0.659912
590,0.665551
591,0.671189
592,0.677092
593,0.683076
594,0.689059
595,0.695043
596,0.701027
597,0.706993
598,0.712953
599,0.718913
600,0.724873
601,0.730833
602,0.736784
603,0.74272
604,0.748656
605,0.754593
606,0.760529
607,0.766423
608,0.772242
609,0.77806
610,0.783878
611,0.789696
612,0.795407
613,0.800902
614,0.806396
615,0.81189
616,0.817385
617,0.822879
618,0.827972
619,0.833053
620,0.838133
621,0.843213
622,0.848293
623,0.853319
624,0.8582
625,0.863081
626,0.867962
627,0.872842
628,0.877723
629,0.882469
630,0.886793
631,0.891117
632,0.895442
633,0.899766
634,0.90409
635,0.908414
636,0.912402
637,0.916343
638,0.920283
639,0.924224
640,0.928165
641,0.932105
642,0.936046
643,0.9396
644,0.943081
645,0.946561
646,0.950042
647,0.953523
648,0.957004
649,0.960484
650,0.963386
651,0.965635
652,0.967885
653,0.970134
654,0.972383
655,0.974633
656,0.976882
657,0.979074
658,0.98075
659,0.982425
660,0.9841
661,0.985775
662,0.98745
663,0.98915
664,0.990858
665,0.992566
666,0.994275
667,0.995983
668,0.997692
669,0.9994
670,1.0
671,1.0
672,1.0
673,1.0
674,1.0
675,1.0
676,1.0
677,0.999312
678,0.997907
679,0.996502
680,0.995097
681,0.993692
682,0.992287
683,0.990882
684,0.989477
685,0.987883
686,0.986175
687,0.984468
688,0.98276
689,0.981053
690,0.979345
691,0.977637
692,0.975766
693,0.973418
694,0.971071
695,0.968723
696,0.966375
697,0.964027
698,0.961679
699,0.959331
700,0.956025
701,0.952593
702,0.949162
703,0.94573
704,0.942298
705,0.938867
706,0.935435
707,0.931721
708,0.927739
709,0.923757
710,0.919775
711,0.915793
712,0.911811
713,0.907829
714,0.903624
715,0.899174
716,0.894723
717,0.890273
718,0.885823
719,0.881373
720,0.876923
721,0.872249
722,0.867511
723,0.862774
724,0.858036
725,0.853298
726,0.84856
727,0.843774
728,0.838917
729,0.834061
730,0.829205
731,0.824348
732,0.819492
733,0.81451
734,0.809322
735,0.804135
736,0.798947
737,0.79376
738,0.788573
739,0.783281
740,0.777942
741,0.772603
742,0.767264
743,0.761925
744,0.756535
745,0.751041
746,0.745546
747,0.740052
748,0.7345575
749,0.729063
750,0.723343
751,0.717615
752,0.711887
753,0.706159
754,0.70043
755,0.694578
756,0.688717
757,0.682857
758,0.676996
759,0.671135
760,0.66492
761,0.658672
762,0.652423
763,0.646175
764,0.639926
765,0.633826
766,0.627744
767,0.621663
768,0.615581
769,0.609391
770,0.602762
771,0.596132
772,0.589503
773,0.582873
774,0.576232
775,0.569588
776,0.562944
777,0.5563
778,0.549633
779,0.542943
780,0.536254
781,0.529564
782,0.522874
783,0.51607
784,0.509237
785,0.502404
786,0.49557
787,0.488814
788,0.482155
789,0.475497
790,0.468838
791,0.462177
792,0.455487
793,0.448797
794,0.442108
795,0.435418
796,0.42884
797,0.422434
798,0.416028
799,0.409622