File: conjugated_ECPs/uv_vis_automated/Macromol., 49, 6350-6359, 2016/metadata/Pro-Pro_EBE.txt
Wavelength (nm),Absorbance
400,0.422384
401,0.428245
402,0.434375
403,0.440505
404,0.446636
405,0.452779
406,0.459185
407,0.465591
408,0.471997
409,0.478403
410,0.485079
411,0.492239
412,0.4994
413,0.506561
414,0.513723
415,0.521338
416,0.528954
417,0.536569
418,0.544185
419,0.552125
420,0.560072
421,0.568019
422,0.576271
423,0.585251
424,0.594231
425,0.60321
426,0.611181
427,0.619093
428,0.627006
429,0.635512
430,0.644653
431,0.653794
432,0.662935
433,0.673666
434,0.684434
435,0.695203
436,0.705121
437,0.714938
438,0.724756
439,0.735091
440,0.745498
441,0.755904
442,0.766313
443,0.776724
444,0.787134
445,0.797666
446,0.808315
447,0.818963
448,0.829675
449,0.840712
450,0.851749
451,0.862807
452,0.873982
453,0.885157
454,0.896158
455,0.90696
456,0.917763
457,0.929005
458,0.940366
459,0.951646
460,0.962249
461,0.972851
462,0.983757
463,0.99507
464,1.00638
465,1.01722
466,1.0279
467,1.03857
468,1.0491
469,1.05963
470,1.07014
471,1.08025
472,1.09036
473,1.10046
474,1.1103
475,1.12015
476,1.12999
477,1.14001
478,1.15002
479,1.16003
480,1.16955
481,1.17882
482,1.18809
483,1.19749
484,1.20697
485,1.21644
486,1.22644
487,1.23674
488,1.24704
489,1.25733
490,1.26763
491,1.27708
492,1.28599
493,1.2949
494,1.30381
495,1.3128
496,1.32181
497,1.33081
498,1.33931
499,1.34744
500,1.35557
501,1.3637
502,1.37085
503,1.37788
504,1.38491
505,1.39194
506,1.39806
507,1.4034
508,1.40874
509,1.41407
510,1.41941
511,1.42419
512,1.42887
513,1.43356
514,1.43824
515,1.44292
516,1.44761
517,1.45222
518,1.45641
519,1.4606
520,1.46479
521,1.46899
522,1.47318
523,1.47737
524,1.48206
525,1.48737
526,1.49269
527,1.498
528,1.50331
529,1.50862
530,1.51361
531,1.5185
532,1.52338
533,1.52827
534,1.53315
535,1.53803
536,1.54123
537,1.54377
538,1.54631
539,1.54884
540,1.55138
541,1.55392
542,1.55646
543,1.55582
544,1.55372
545,1.55161
546,1.54951
547,1.5474
548,1.5453
549,1.54319
550,1.53735
551,1.53144
552,1.52553
553,1.51962
554,1.51371
555,1.50591
556,1.49802
557,1.49012
558,1.48223
559,1.47444
560,1.46666
561,1.45888
562,1.4511
563,1.4453
564,1.43968
565,1.43407
566,1.42845
567,1.42283
568,1.41796
569,1.41573
570,1.41351
571,1.41128
572,1.40905
573,1.40682
574,1.4046
575,1.40237
576,1.40119
577,1.4002
578,1.39921
579,1.39822
580,1.39723
581,1.39624
582,1.39525
583,1.39309
584,1.38965
585,1.38621
586,1.38277
587,1.37933
588,1.37589
589,1.37206
590,1.3651
591,1.35814
592,1.35118
593,1.34422
594,1.33472
595,1.32441
596,1.31411
597,1.30046
598,1.28565
599,1.27115
600,1.25687
601,1.24211
602,1.22659
603,1.21082
604,1.19461
605,1.17821
606,1.16146
607,1.14436
608,1.1266
609,1.10915
610,1.09226
611,1.0756
612,1.05937
613,1.04392
614,1.03007
615,1.01629
616,1.00514
617,0.993991
618,0.985323
619,0.978924
620,0.972526
621,0.966128
622,0.95973
623,0.954349
624,0.951674
625,0.948999
626,0.946324
627,0.943649
628,0.940974
629,0.938299
630,0.937371
631,0.937745
632,0.93812
633,0.938495
634,0.93887
635,0.939306
636,0.939972
637,0.940637
638,0.941303
639,0.941969
640,0.942635
641,0.944804
642,0.950764
643,0.956724
644,0.962684
645,0.965144
646,0.966138
647,0.967131
648,0.968124
649,0.969118
650,0.970111
651,0.971104
652,0.973001
653,0.97565
654,0.978299
655,0.980948
656,0.983597
657,0.986179
658,0.98845
659,0.99072
660,0.99299
661,0.995261
662,0.997531
663,0.999802
664,1.00052
665,1.00109
666,1.00165
667,1.00222
668,1.00279
669,1.00336
670,1.00356
671,1.00356
672,1.00356
673,1.00356
674,1.00356
675,1.00356
676,1.00279
677,1.0008
678,0.998818
679,0.996831
680,0.995164
681,0.993575
682,0.991986
683,0.990396
684,0.98877
685,0.987067
686,0.985364
687,0.983661
688,0.981958
689,0.980255
690,0.978489
691,0.97584
692,0.973191
693,0.970542
694,0.967893
695,0.965244
696,0.961625
697,0.957585
698,0.953545
699,0.949505
700,0.945465
701,0.941425
702,0.937043
703,0.932371
704,0.927698
705,0.923025
706,0.918353
707,0.91368
708,0.908846
709,0.903244
710,0.897643
711,0.892042
712,0.886441
713,0.880839
714,0.874814
715,0.868692
716,0.86257
717,0.856448
718,0.850271
719,0.843703
720,0.837135
721,0.830566
722,0.823998
723,0.817308
724,0.810456
725,0.803604
726,0.796752
727,0.7899
728,0.783035
729,0.776165
730,0.769295
731,0.762426
732,0.755396
733,0.748111
734,0.740827
735,0.733543
736,0.726218
737,0.718823
738,0.711428
739,0.704033
740,0.696657
741,0.689318
742,0.681978
743,0.674639
744,0.667281
745,0.659886
746,0.652491
747,0.645097
748,0.637719
749,0.630379
750,0.623039
751,0.6157
752,0.60831
753,0.600794
754,0.593278
755,0.585761
756,0.577926
757,0.570068
758,0.562204
759,0.554258
760,0.546311
761,0.53688
762,0.52496
763,0.515876
764,0.508812
765,0.501748
766,0.494684
767,0.488394
768,0.482717
769,0.477041
770,0.4704
771,0.462453
772,0.455453
773,0.448997
774,0.44254
775,0.436
776,0.428053
777,0.420107
778,0.412625
779,0.405246
780,0.397867
781,0.390098
782,0.382151
783,0.37421
784,0.368913
785,0.363615
786,0.356844
787,0.346911
788,0.338475
789,0.331378
790,0.324281
791,0.317184
792,0.310695
793,0.305066
794,0.299437
795,0.293808
796,0.288179
797,0.282679
798,0.277381
799,0.272084