File: conjugated_ECPs/uv_vis_automated/Macromol., 49, 6350-6359, 2016/metadata/Pro-Ac0.75_EBE_0.25.csv
Wavelength (nm),Absorbance
400,0.520077
401,0.527395
402,0.535474
403,0.543553
404,0.551632
405,0.55991
406,0.568266
407,0.576623
408,0.585006
409,0.594205
410,0.603404
411,0.612603
412,0.621946
413,0.631562
414,0.641177
415,0.650793
416,0.661055
417,0.671319
418,0.681584
419,0.691645
420,0.701703
421,0.712171
422,0.723595
423,0.735018
424,0.746519
425,0.758066
426,0.769614
427,0.781278
428,0.79295
429,0.804589
430,0.816136
431,0.827684
432,0.839447
433,0.851367
434,0.863287
435,0.875096
436,0.886892
437,0.898851
438,0.911392
439,0.923932
440,0.936292
441,0.948495
442,0.960727
443,0.973072
444,0.985418
445,0.997192
446,1.00886
447,1.02066
448,1.03308
449,1.04549
450,1.05785
451,1.07014
452,1.082435
453,1.09423
454,1.1059
455,1.11754
456,1.12897
457,1.14041
458,1.15179
459,1.16276
460,1.17373
461,1.18466
462,1.19514
463,1.20563
464,1.21607
465,1.226
466,1.23593
467,1.24587
468,1.25528
469,1.2645
470,1.27371
471,1.28253
472,1.29071
473,1.29889
474,1.30706
475,1.31504
476,1.32293
477,1.33082
478,1.33871
479,1.34589
480,1.35271
481,1.35954
482,1.36636
483,1.37285
484,1.37861
485,1.38437
486,1.39013
487,1.3959
488,1.40113
489,1.40507
490,1.40902
491,1.41297
492,1.41692
493,1.42087
494,1.42482
495,1.42674
496,1.42849
497,1.43025
498,1.43201
499,1.43376
500,1.43552
501,1.43728
502,1.43806
503,1.43806
504,1.43806
505,1.43806
506,1.43806
507,1.43806
508,1.43806
509,1.43788
510,1.43691
511,1.43594
512,1.43497
513,1.434
514,1.43303
515,1.43206
516,1.4311
517,1.42914
518,1.42695
519,1.42477
520,1.42258
521,1.4204
522,1.41822
523,1.41603
524,1.41304
525,1.40904
526,1.40504
527,1.40104
528,1.39705
529,1.39305
530,1.38905
531,1.38334
532,1.37704
533,1.37075
534,1.36445
535,1.35816
536,1.35141
537,1.34391
538,1.33642
539,1.32893
540,1.32113
541,1.31278
542,1.30444
543,1.29609
544,1.28751
545,1.27893
546,1.27034
547,1.26202
548,1.25382
549,1.24562
550,1.23742
551,1.22957
552,1.22174
553,1.2139
554,1.20606
555,1.19946
556,1.19292
557,1.18638
558,1.17984
559,1.17345
560,1.16717
561,1.16088
562,1.1546
563,1.14831
564,1.14234
565,1.13641
566,1.13047
567,1.12454
568,1.1186
569,1.11217
570,1.10568
571,1.09919
572,1.0927
573,1.08601
574,1.0785
575,1.071
576,1.06349
577,1.05589
578,1.04782
579,1.03975
580,1.03169
581,1.02321
582,1.01429
583,1.00538
584,0.996498
585,0.987823
586,0.979148
587,0.970474
588,0.96183
589,0.953195
590,0.944559
591,0.936183
592,0.928142
593,0.920101
594,0.91206
595,0.904869
596,0.898869
597,0.89287
598,0.886871
599,0.880871
600,0.875048
601,0.872192
602,0.869336
603,0.866481
604,0.863625
605,0.86077
606,0.857914
607,0.856294
608,0.856918
609,0.857542
610,0.858166
611,0.85879
612,0.859414
613,0.860038
614,0.860662
615,0.863403
616,0.866178
617,0.868952
618,0.871727
619,0.874502
620,0.877277
621,0.880051
622,0.8833
623,0.886846
624,0.890392
625,0.893939
626,0.897485
627,0.901032
628,0.904578
629,0.908069
630,0.911386
631,0.914702
632,0.918019
633,0.921335
634,0.924652
635,0.927968
636,0.931285
637,0.93453
638,0.937765
639,0.940999
640,0.944233
641,0.947468
642,0.950702
643,0.953937
644,0.956826
645,0.959371
646,0.961916
647,0.964461
648,0.967006
649,0.96955
650,0.972095
651,0.974527
652,0.976202
653,0.977876
654,0.979551
655,0.981226
656,0.982901
657,0.984575
658,0.98625
659,0.987389
660,0.988357
661,0.989326
662,0.990295
663,0.991263
664,0.992232
665,0.993201
666,0.993953
667,0.994363
668,0.994774
669,0.995184
670,0.995595
671,0.996005
672,0.996415
673,0.996806
674,0.996083
675,0.995361
676,0.994639
677,0.993916
678,0.993194
679,0.992471
680,0.991749
681,0.990145
682,0.98806
683,0.985975
684,0.983889
685,0.981804
686,0.979719
687,0.977634
688,0.975218
689,0.971934
690,0.96865
691,0.965367
692,0.962083
693,0.958799
694,0.955515
695,0.952232
696,0.948091
697,0.943861
698,0.939631
699,0.935401
700,0.93117
701,0.92694
702,0.922529
703,0.917413
704,0.912297
705,0.907181
706,0.902065
707,0.896949
708,0.891548
709,0.885872
710,0.880196
711,0.874519
712,0.868843
713,0.862854
714,0.856529
715,0.850204
716,0.843879
717,0.837554
718,0.831036
719,0.824468
720,0.8179
721,0.811332
722,0.804738
723,0.797919
724,0.791101
725,0.784282
726,0.777463
727,0.770585
728,0.763687
729,0.756789
730,0.749891
731,0.742832
732,0.735713
733,0.728594
734,0.721476
735,0.714201
736,0.706861
737,0.699522
738,0.692182
739,0.684994
740,0.677875
741,0.670756
742,0.663637
743,0.656481
744,0.649307
745,0.642133
746,0.634959
747,0.627714
748,0.62043
749,0.613145
750,0.605861
751,0.598507
752,0.591113
753,0.583718
754,0.576323
755,0.568995
756,0.56171
757,0.554426
758,0.547141
759,0.54001
760,0.532987
761,0.525965
762,0.518942
763,0.511977
764,0.505206
765,0.498435
766,0.491664
767,0.484894
768,0.478202
769,0.47158
770,0.464958
771,0.458336
772,0.451637
773,0.444593
774,0.437548
775,0.430504
776,0.42346
777,0.416708
778,0.410019
779,0.403329
780,0.396639
781,0.390036
782,0.383986
783,0.377936
784,0.371886
785,0.365836
786,0.359819
787,0.354062
788,0.348306
789,0.342549
790,0.336792
791,0.331048
792,0.325439
793,0.31983
794,0.314221
795,0.308611
796,0.303002
797,0.297842
798,0.292853
799,0.287865