File: conjugated_ECPs/uv_vis_automated/Macromol., 49, 6350-6359, 2016/metadata/Pro-Ac0.65_EBE_0.35.csv
Wavelength (nm),Absorbance
400,0.454186
401,0.460624
402,0.467062
403,0.4735
404,0.480752
405,0.490622
406,0.500493
407,0.510364
408,0.518752
409,0.523805
410,0.528858
411,0.533911
412,0.538964
413,0.544017
414,0.54907
415,0.557531
416,0.566063
417,0.574596
418,0.583129
419,0.591661
420,0.599955
421,0.608176
422,0.616397
423,0.624619
424,0.63284
425,0.640889
426,0.648923
427,0.656957
428,0.665539
429,0.675286
430,0.685033
431,0.694781
432,0.70876
433,0.725005
434,0.74125
435,0.752861
436,0.763629
437,0.773554
438,0.782497
439,0.791439
440,0.800382
441,0.809936
442,0.819873
443,0.828657
444,0.836928
445,0.8452
446,0.853079
447,0.86055
448,0.868022
449,0.875493
450,0.883379
451,0.891916
452,0.900454
453,0.908992
454,0.916674
455,0.923808
456,0.930941
457,0.938073
458,0.94519
459,0.952308
460,0.960255
461,0.969529
462,0.978803
463,0.984801
464,0.987525
465,0.990248
466,0.992971
467,0.995697
468,0.998428
469,1.00116
470,1.00389
471,1.00662
472,1.00935
473,1.01208
474,1.0146
475,1.01636
476,1.01812
477,1.01988
478,1.02164
479,1.0234
480,1.02516
481,1.02692
482,1.02841
483,1.02979
484,1.03117
485,1.03255
486,1.03393
487,1.03531
488,1.03669
489,1.0371
490,1.03705
491,1.037
492,1.03696
493,1.03648
494,1.03582
495,1.03516
496,1.0345
497,1.03383
498,1.03317
499,1.03004
500,1.0267
501,1.02336
502,1.02002
503,1.01668
504,1.01335
505,1.01012
506,1.0069
507,1.00368
508,1.00047
509,0.997246
510,0.994027
511,0.990808
512,0.98733
513,0.982999
514,0.978668
515,0.974336
516,0.970005
517,0.965687
518,0.961938
519,0.95819
520,0.954441
521,0.950692
522,0.946944
523,0.943195
524,0.939446
525,0.935684
526,0.930149
527,0.924614
528,0.919078
529,0.913543
530,0.908008
531,0.902473
532,0.896946
533,0.891477
534,0.886007
535,0.880537
536,0.875067
537,0.869597
538,0.864127
539,0.85929
540,0.855826
541,0.852362
542,0.848898
543,0.845434
544,0.841971
545,0.838507
546,0.835043
547,0.830697
548,0.825842
549,0.820987
550,0.816132
551,0.811277
552,0.806423
553,0.801568
554,0.798341
555,0.795192
556,0.792044
557,0.788895
558,0.785746
559,0.782597
560,0.779448
561,0.7763
562,0.774189
563,0.772146
564,0.770102
565,0.768059
566,0.766015
567,0.763972
568,0.761928
569,0.760148
570,0.758549
571,0.75695
572,0.75535
573,0.753751
574,0.752152
575,0.750553
576,0.748894
577,0.747174
578,0.745454
579,0.743735
580,0.742015
581,0.740295
582,0.738575
583,0.736856
584,0.735619
585,0.737007
586,0.738394
587,0.739782
588,0.74117
589,0.742557
590,0.743945
591,0.745333
592,0.746721
593,0.748108
594,0.749954
595,0.751863
596,0.753772
597,0.755681
598,0.757591
599,0.7595
600,0.761409
601,0.763318
602,0.765713
603,0.768237
604,0.770761
605,0.773285
606,0.775809
607,0.778333
608,0.780857
609,0.783381
610,0.787921
611,0.792545
612,0.79717
613,0.801794
614,0.806418
615,0.810999
616,0.815267
617,0.819535
618,0.823803
619,0.828071
620,0.831998
621,0.83552
622,0.839043
623,0.842566
624,0.846089
625,0.849612
626,0.853135
627,0.857422
628,0.861768
629,0.866114
630,0.870461
631,0.874807
632,0.879154
633,0.8835
634,0.887847
635,0.89197
636,0.895944
637,0.899919
638,0.903893
639,0.907868
640,0.911662
641,0.914175
642,0.916687
643,0.9192
644,0.921713
645,0.927185
646,0.933544
647,0.939903
648,0.946262
649,0.952622
650,0.955924
651,0.959103
652,0.962283
653,0.965462
654,0.96852
655,0.970904
656,0.973289
657,0.975674
658,0.978059
659,0.980306
660,0.982293
661,0.98428
662,0.986268
663,0.988255
664,0.990242
665,0.992229
666,0.994217
667,0.995229
668,0.995726
669,0.996223
670,0.99672
671,0.997217
672,0.997713
673,0.99821
674,0.998707
675,0.998726
676,0.998726
677,0.998726
678,0.998726
679,0.998726
680,0.998726
681,0.998726
682,0.998726
683,0.998726
684,0.998726
685,0.998726
686,0.998726
687,0.99735
688,0.994369
689,0.991389
690,0.988408
691,0.986772
692,0.985977
693,0.985182
694,0.984387
695,0.983592
696,0.981834
697,0.979847
698,0.97786
699,0.975873
700,0.973885
701,0.971898
702,0.969911
703,0.967924
704,0.965936
705,0.963949
706,0.961962
707,0.959796
708,0.957146
709,0.954497
710,0.951847
711,0.949197
712,0.946548
713,0.943236
714,0.939261
715,0.935287
716,0.929682
717,0.923057
718,0.916433
719,0.910777
720,0.905478
721,0.900178
722,0.889274
723,0.883181
724,0.877849
725,0.872518
726,0.867186
727,0.860243
728,0.851556
729,0.842868
730,0.83418
731,0.825493
732,0.828697
733,0.821726
734,0.814756
735,0.807786
736,0.800816
737,0.793859
738,0.78693
739,0.780002
740,0.774013
741,0.768713
742,0.763414
743,0.75628
744,0.748331
745,0.740382
746,0.732433
747,0.724484
748,0.716294
749,0.708181
750,0.70124
751,0.694299
752,0.687358
753,0.680418
754,0.673548
755,0.66673
756,0.659912
757,0.653094
758,0.646078
759,0.638413
760,0.630748
761,0.623083
762,0.615418
763,0.608056
764,0.600935
765,0.593814
766,0.586693
767,0.579372
768,0.571886
769,0.564401
770,0.556718
771,0.5483
772,0.539882
773,0.531464
774,0.523439
775,0.516951
776,0.510463
777,0.503975
778,0.497487
779,0.490999
780,0.483985
781,0.476498
782,0.46901
783,0.461522
784,0.454035
785,0.446512
786,0.438833
787,0.431155
788,0.423476
789,0.415797
790,0.408763
791,0.402355
792,0.395947
793,0.389539
794,0.383131
795,0.376385
796,0.3693
797,0.362214
798,0.355129
799,0.348043