File: conjugated_ECPs/uv_vis_automated/Macromol., 49, 6350-6359, 2016/metadata/Pro-Ac0.7_EBE_0.3.csv
Wavelength (nm),Absorbance
400,0.489696
401,0.495669
402,0.50179
403,0.508379
404,0.514968
405,0.521557
406,0.528146
407,0.534774
408,0.545902
409,0.557031
410,0.565413
411,0.571633
412,0.577853
413,0.584073
414,0.591047
415,0.600724
416,0.610402
417,0.620045
418,0.629473
419,0.638901
420,0.648329
421,0.657915
422,0.66751
423,0.677105
424,0.687031
425,0.697245
426,0.70746
427,0.717697
428,0.728031
429,0.738365
430,0.748698
431,0.759168
432,0.769661
433,0.780153
434,0.790483
435,0.800657
436,0.810832
437,0.820986
438,0.83104
439,0.841093
440,0.851147
441,0.862235
442,0.873426
443,0.884486
444,0.894197
445,0.903907
446,0.913618
447,0.923265
448,0.932898
449,0.942531
450,0.952272
451,0.962352
452,0.972433
453,0.982716
454,0.993447
455,1.00418
456,1.01379
457,1.02215
458,1.03051
459,1.03886
460,1.04672
461,1.05445
462,1.06218
463,1.0699
464,1.07678
465,1.08344
466,1.09009
467,1.09674
468,1.10292
469,1.10853
470,1.11414
471,1.11975
472,1.12535
473,1.13082
474,1.1351
475,1.13938
476,1.14366
477,1.14795
478,1.15223
479,1.15651
480,1.16012
481,1.16283
482,1.16554
483,1.16825
484,1.17096
485,1.17367
486,1.17638
487,1.17896
488,1.18001
489,1.18106
490,1.18211
491,1.18316
492,1.18421
493,1.18526
494,1.18631
495,1.18597
496,1.18512
497,1.18427
498,1.18342
499,1.18257
500,1.18171
501,1.18086
502,1.17931
503,1.17753
504,1.17575
505,1.17397
506,1.1722
507,1.17042
508,1.16864
509,1.16683
510,1.16428
511,1.16174
512,1.15919
513,1.15665
514,1.1541
515,1.15156
516,1.14901
517,1.14593
518,1.14261
519,1.1393
520,1.13598
521,1.13266
522,1.12934
523,1.12603
524,1.12239
525,1.11813
526,1.11387
527,1.10961
528,1.10536
529,1.1011
530,1.09684
531,1.09187
532,1.08654
533,1.08121
534,1.07589
535,1.07056
536,1.06523
537,1.05918
538,1.05312
539,1.04705
540,1.04099
541,1.03493
542,1.02877
543,1.02261
544,1.01644
545,1.01028
546,1.00419
547,0.998266
548,0.992346
549,0.986425
550,0.980505
551,0.975039
552,0.969845
553,0.96465
554,0.959455
555,0.95426
556,0.949325
557,0.945048
558,0.940772
559,0.936495
560,0.932219
561,0.927942
562,0.923665
563,0.919641
564,0.915781
565,0.911921
566,0.908062
567,0.904202
568,0.900343
569,0.896483
570,0.89264
571,0.888847
572,0.885053
573,0.881259
574,0.877465
575,0.873671
576,0.869877
577,0.866083
578,0.862364
579,0.858652
580,0.854941
581,0.851229
582,0.847517
583,0.843806
584,0.840094
585,0.836705
586,0.833568
587,0.830431
588,0.827294
589,0.824157
590,0.82102
591,0.817883
592,0.815081
593,0.813505
594,0.811928
595,0.810351
596,0.808775
597,0.807198
598,0.805621
599,0.804045
600,0.804505
601,0.805277
602,0.806049
603,0.806821
604,0.807593
605,0.808365
606,0.809137
607,0.810925
608,0.813651
609,0.816378
610,0.819104
611,0.82183
612,0.824557
613,0.827283
614,0.830166
615,0.833795
616,0.837425
617,0.841054
618,0.844684
619,0.848314
620,0.851943
621,0.855573
622,0.859635
623,0.863789
624,0.867942
625,0.872095
626,0.876249
627,0.880402
628,0.884556
629,0.888558
630,0.892526
631,0.896494
632,0.900461
633,0.904429
634,0.908397
635,0.912364
636,0.916101
637,0.91978
638,0.923459
639,0.927138
640,0.930817
641,0.934496
642,0.938174
643,0.941601
644,0.944722
645,0.947842
646,0.950962
647,0.954083
648,0.957203
649,0.960324
650,0.963355
651,0.965622
652,0.967888
653,0.970154
654,0.972421
655,0.974687
656,0.976954
657,0.97922
658,0.981337
659,0.983407
660,0.985476
661,0.987546
662,0.989615
663,0.991684
664,0.993754
665,0.995518
666,0.996843
667,0.998167
668,0.999492
669,1.00082
670,1.00214
671,1.00347
672,1.00384
673,1.00276
674,1.00168
675,1.00061
676,0.999531
677,0.998454
678,0.997377
679,0.9963
680,0.995223
681,0.994146
682,0.993069
683,0.991993
684,0.990916
685,0.989839
686,0.988762
687,0.987685
688,0.986608
689,0.985121
690,0.982921
691,0.98072
692,0.978519
693,0.976318
694,0.974117
695,0.971917
696,0.969697
697,0.966396
698,0.963094
699,0.959793
700,0.956492
701,0.953191
702,0.94989
703,0.946589
704,0.942562
705,0.938178
706,0.933794
707,0.92941
708,0.925026
709,0.920642
710,0.916258
711,0.910822
712,0.905376
713,0.899931
714,0.894485
715,0.88904
716,0.883491
717,0.877715
718,0.87194
719,0.866164
720,0.860389
721,0.854613
722,0.84857
723,0.842518
724,0.836466
725,0.830415
726,0.824363
727,0.818164
728,0.811959
729,0.805754
730,0.799549
731,0.793259
732,0.786759
733,0.780258
734,0.773758
735,0.767258
736,0.760328
737,0.753372
738,0.746417
739,0.739461
740,0.732632
741,0.725811
742,0.718991
743,0.71217
744,0.705219
745,0.69818
746,0.691141
747,0.684102
748,0.677028
749,0.669852
750,0.662676
751,0.655499
752,0.64831
753,0.641078
754,0.633847
755,0.626615
756,0.619371
757,0.612084
758,0.604798
759,0.597511
760,0.590161
761,0.582598
762,0.575036
763,0.567473
764,0.559996
765,0.55282
766,0.545644
767,0.538468
768,0.531256
769,0.523914
770,0.516572
771,0.50923
772,0.501854
773,0.494347
774,0.486839
775,0.479332
776,0.471847
777,0.46445
778,0.457052
779,0.449655
780,0.442312
781,0.43519
782,0.428069
783,0.420948
784,0.413843
785,0.406803
786,0.399764
787,0.392725
788,0.385686
789,0.379008
790,0.372398
791,0.365787
792,0.359176
793,0.352579
794,0.346049
795,0.33952
796,0.33299
797,0.326461
798,0.318211
799,0.3096