File: conjugated_ECPs/uv_vis_automated/Chem. Mater.,31, 17, 6841-6849, 2019/metadata/xyz111.txt
Wavelength (nm),Absorbance
330,0.254374
331,0.252902
332,0.251499
333,0.250556
334,0.249613
335,0.248669
336,0.247726
337,0.246783
338,0.24584
339,0.244896
340,0.243953
341,0.24301
342,0.242623
343,0.242577
344,0.242531
345,0.242485
346,0.242439
347,0.242393
348,0.242347
349,0.242301
350,0.242255
351,0.242386
352,0.243974
353,0.245561
354,0.247148
355,0.248736
356,0.250323
357,0.251911
358,0.253498
359,0.255085
360,0.256673
361,0.258796
362,0.26128
363,0.263765
364,0.26625
365,0.268734
366,0.271219
367,0.273703
368,0.276188
369,0.278673
370,0.281199
371,0.284166
372,0.287134
373,0.290102
374,0.29307
375,0.296038
376,0.299006
377,0.301974
378,0.304942
379,0.30807
380,0.311403
381,0.314737
382,0.318071
383,0.321404
384,0.324738
385,0.328071
386,0.331405
387,0.334946
388,0.338596
389,0.342247
390,0.345897
391,0.349547
392,0.353197
393,0.356847
394,0.360603
395,0.364596
396,0.368589
397,0.372583
398,0.376576
399,0.380569
400,0.384562
401,0.388822
402,0.393139
403,0.397457
404,0.401775
405,0.406092
406,0.41041
407,0.414834
408,0.41929
409,0.423746
410,0.428202
411,0.432658
412,0.437169
413,0.442002
414,0.446835
415,0.451668
416,0.456501
417,0.461333
418,0.466315
419,0.471302
420,0.47629
421,0.481277
422,0.486265
423,0.491401
424,0.496582
425,0.501763
426,0.506943
427,0.512124
428,0.517395
429,0.522731
430,0.528066
431,0.533402
432,0.538737
433,0.544149
434,0.549678
435,0.555206
436,0.560735
437,0.566264
438,0.571834
439,0.577561
440,0.583289
441,0.589017
442,0.594745
443,0.600525
444,0.606371
445,0.612217
446,0.618063
447,0.623895
448,0.629629
449,0.635363
450,0.641098
451,0.646832
452,0.652746
453,0.658703
454,0.66466
455,0.670617
456,0.676494
457,0.682284
458,0.688075
459,0.693865
460,0.699664
461,0.705509
462,0.711355
463,0.717201
464,0.723047
465,0.728754
466,0.734432
467,0.740111
468,0.74579
469,0.751476
470,0.75717
471,0.762864
472,0.768558
473,0.774252
474,0.77988
475,0.785486
476,0.791092
477,0.796698
478,0.802305
479,0.807758
480,0.813093
481,0.818429
482,0.823764
483,0.829099
484,0.834319
485,0.839346
486,0.844373
487,0.8494
488,0.854427
489,0.859454
490,0.864179
491,0.868808
492,0.873436
493,0.878065
494,0.882693
495,0.887322
496,0.8918
497,0.895874
498,0.899948
499,0.904022
500,0.908096
501,0.91217
502,0.916244
503,0.920103
504,0.923569
505,0.927035
506,0.930501
507,0.933967
508,0.937433
509,0.940899
510,0.944363
511,0.947193
512,0.950023
513,0.952853
514,0.955684
515,0.958514
516,0.961344
517,0.964174
518,0.967004
519,0.969514
520,0.971446
521,0.973379
522,0.975311
523,0.977244
524,0.979176
525,0.981109
526,0.983041
527,0.984974
528,0.986906
529,0.987877
530,0.98867
531,0.989464
532,0.990258
533,0.991051
534,0.991845
535,0.992639
536,0.993433
537,0.994226
538,0.994579
539,0.99405
540,0.993521
541,0.992992
542,0.992462
543,0.991933
544,0.991404
545,0.990875
546,0.990346
547,0.989817
548,0.98817
549,0.98628
550,0.98439
551,0.9825
552,0.980611
553,0.978721
554,0.976831
555,0.974941
556,0.973051
557,0.970837
558,0.968274
559,0.965712
560,0.963149
561,0.960586
562,0.958024
563,0.955461
564,0.952899
565,0.950336
566,0.947607
567,0.94432
568,0.941034
569,0.937748
570,0.934461
571,0.931175
572,0.927889
573,0.924602
574,0.920944
575,0.916828
576,0.912712
577,0.908596
578,0.90448
579,0.900364
580,0.896248
581,0.891188
582,0.886091
583,0.880994
584,0.875897
585,0.8708
586,0.864735
587,0.858388
588,0.852041
589,0.845694
590,0.839021
591,0.83195
592,0.824879
593,0.817809
594,0.81037
595,0.800418
596,0.790466
597,0.780663
598,0.772182
599,0.7637
600,0.755218
601,0.746737
602,0.738255
603,0.729773
604,0.721292
605,0.71281
606,0.704329
607,0.695847
608,0.687649
609,0.679559
610,0.671469
611,0.663638
612,0.656524
613,0.64941
614,0.642296
615,0.635502
616,0.629238
617,0.622975
618,0.616711
619,0.610448
620,0.60418
621,0.597888
622,0.591597
623,0.585306
624,0.579015
625,0.572824
626,0.566649
627,0.560474
628,0.5543
629,0.548125
630,0.54195
631,0.535775
632,0.5296
633,0.523426
634,0.517132
635,0.510618
636,0.504104
637,0.49759
638,0.491066
639,0.484219
640,0.477371
641,0.470523
642,0.463675
643,0.454949
644,0.445436
645,0.435923
646,0.426838
647,0.417821
648,0.408831
649,0.400998
650,0.393166
651,0.385334
652,0.376932
653,0.368189
654,0.359447
655,0.350711
656,0.342012
657,0.333313
658,0.324614
659,0.315976
660,0.307364
661,0.298752
662,0.290329
663,0.282478
664,0.274627
665,0.266775
666,0.260523
667,0.254549
668,0.248575
669,0.2426
670,0.236621
671,0.230514
672,0.224407
673,0.218299
674,0.212192
675,0.2064
676,0.201424
677,0.196448
678,0.191472
679,0.186496
680,0.18152
681,0.177337
682,0.173566
683,0.169795
684,0.166024
685,0.162253
686,0.158482
687,0.154711
688,0.151302
689,0.148706
690,0.146111
691,0.143515
692,0.140919
693,0.138324
694,0.135728
695,0.133132
696,0.130536
697,0.128169
698,0.12657
699,0.124971
700,0.123372
701,0.121773
702,0.120174
703,0.118575
704,0.116976
705,0.115377
706,0.113778
707,0.112567
708,0.111509
709,0.11045
710,0.109392
711,0.108334
712,0.107276
713,0.106217
714,0.105159
715,0.104101
716,0.103118
717,0.102428
718,0.101738
719,0.101048
720,0.100357
721,0.0996672
722,0.098977
723,0.0982868
724,0.0975966
725,0.0969065
726,0.096328
727,0.0957988
728,0.0952697
729,0.0947406
730,0.0942114
731,0.0936823
732,0.0931531
733,0.092624
734,0.0920949
735,0.0916076
736,0.0913085
737,0.0910094
738,0.0907103
739,0.0904113
740,0.0901122
741,0.0898131
742,0.089514
743,0.0892149
744,0.0889159
745,0.0886168
746,0.0883177
747,0.0880186
748,0.0877196
749,0.0874205
750,0.0871214
751,0.0868223
752,0.0865233
753,0.0862242
754,0.0859488
755,0.0857993
756,0.0856497
757,0.0855002
758,0.0853506
759,0.0852011
760,0.0850516
761,0.084902
762,0.0847525
763,0.0846029
764,0.084446
765,0.0842849
766,0.0841239
767,0.0839628
768,0.0838018
769,0.0836408
770,0.0834797
771,0.0833187
772,0.0831576
773,0.0829935
774,0.0828094
775,0.0826254
776,0.0824413
777,0.0822573
778,0.0820732
779,0.0818892
780,0.0817051
781,0.0815211
782,0.0813371
783,0.0812247
784,0.0811557
785,0.0810867
786,0.0810177
787,0.0809486
788,0.0808796
789,0.0808106