File: conjugated_ECPs/uv_vis_automated/Chem. Mater.,31, 17, 6841-6849, 2019/metadata/xyz121.txt
Wavelength (nm),Absorbance
330,0.203846
331,0.202338
332,0.200831
333,0.199323
334,0.197815
335,0.196525
336,0.195504
337,0.194484
338,0.193463
339,0.192443
340,0.191422
341,0.190402
342,0.189381
343,0.188361
344,0.18734
345,0.187781
346,0.188291
347,0.188801
348,0.189311
349,0.189822
350,0.190332
351,0.190842
352,0.191352
353,0.191863
354,0.19276
355,0.194105
356,0.19545
357,0.196795
358,0.198141
359,0.199486
360,0.200831
361,0.202176
362,0.203522
363,0.204867
364,0.206632
365,0.20841
366,0.210188
367,0.211965
368,0.213743
369,0.21552
370,0.217298
371,0.219075
372,0.221913
373,0.225059
374,0.228204
375,0.23135
376,0.234495
377,0.237641
378,0.240151
379,0.242333
380,0.244516
381,0.246699
382,0.248882
383,0.251065
384,0.253247
385,0.25543
386,0.257613
387,0.26029
388,0.263097
389,0.265903
390,0.26871
391,0.271516
392,0.275782
393,0.280273
394,0.284763
395,0.289253
396,0.293744
397,0.296356
398,0.298851
399,0.301346
400,0.30384
401,0.306335
402,0.308829
403,0.311324
404,0.313819
405,0.316362
406,0.31952
407,0.322677
408,0.325834
409,0.328991
410,0.332149
411,0.335306
412,0.338463
413,0.341984
414,0.347036
415,0.352088
416,0.357139
417,0.362191
418,0.367018
419,0.371228
420,0.375438
421,0.379647
422,0.383857
423,0.388067
424,0.392608
425,0.397753
426,0.402899
427,0.408044
428,0.413189
429,0.418334
430,0.423189
431,0.427679
432,0.43217
433,0.43666
434,0.44115
435,0.445641
436,0.450131
437,0.454621
438,0.459112
439,0.463602
440,0.469419
441,0.476155
442,0.48289
443,0.489626
444,0.496361
445,0.503283
446,0.5103
447,0.517316
448,0.524332
449,0.530738
450,0.536912
451,0.543087
452,0.549261
453,0.555435
454,0.560265
455,0.564756
456,0.569246
457,0.573736
458,0.578227
459,0.584675
460,0.59141
461,0.598146
462,0.604881
463,0.611617
464,0.61729
465,0.622903
466,0.628516
467,0.634129
468,0.639742
469,0.645355
470,0.650968
471,0.656581
472,0.662304
473,0.66932
474,0.676336
475,0.683353
476,0.690175
477,0.695788
478,0.701401
479,0.707014
480,0.712903
481,0.719919
482,0.726935
483,0.733952
484,0.740197
485,0.744207
486,0.748216
487,0.752225
488,0.756234
489,0.760244
490,0.764253
491,0.770857
492,0.782083
493,0.790812
494,0.795623
495,0.800434
496,0.805246
497,0.810057
498,0.814868
499,0.819679
500,0.826959
501,0.836781
502,0.843429
503,0.847171
504,0.850912
505,0.854654
506,0.858396
507,0.862138
508,0.867023
509,0.872636
510,0.878249
511,0.883862
512,0.889624
513,0.895459
514,0.901295
515,0.90713
516,0.912213
517,0.916148
518,0.920083
519,0.924018
520,0.927954
521,0.931889
522,0.935824
523,0.939401
524,0.942878
525,0.946355
526,0.949832
527,0.953309
528,0.956785
529,0.960262
530,0.963729
531,0.966587
532,0.969444
533,0.972302
534,0.975159
535,0.977892
536,0.980288
537,0.982684
538,0.98508
539,0.987476
540,0.989872
541,0.992268
542,0.994664
543,0.99706
544,0.999078
545,0.999078
546,0.999078
547,0.999078
548,0.999078
549,0.999078
550,0.999078
551,0.999078
552,0.999078
553,0.999078
554,0.999078
555,0.999078
556,0.999078
557,0.99844
558,0.996613
559,0.994787
560,0.99296
561,0.991134
562,0.989308
563,0.987481
564,0.985655
565,0.983808
566,0.981698
567,0.979587
568,0.977476
569,0.975366
570,0.973255
571,0.971145
572,0.969034
573,0.966923
574,0.964813
575,0.962105
576,0.958967
577,0.955828
578,0.952689
579,0.94955
580,0.946411
581,0.943273
582,0.940134
583,0.936476
584,0.931982
585,0.927488
586,0.922995
587,0.918501
588,0.914007
589,0.909065
590,0.903265
591,0.897465
592,0.891665
593,0.885865
594,0.879085
595,0.871648
596,0.864211
597,0.856774
598,0.848885
599,0.840817
600,0.832748
601,0.824425
602,0.815392
603,0.806358
604,0.797325
605,0.788139
606,0.778918
607,0.769697
608,0.759999
609,0.750176
610,0.740435
611,0.731014
612,0.721592
613,0.712161
614,0.702689
615,0.693218
616,0.683746
617,0.674311
618,0.664889
619,0.655468
620,0.646546
621,0.637826
622,0.629106
623,0.620777
624,0.612621
625,0.604465
626,0.596457
627,0.588915
628,0.581373
629,0.57383
630,0.566359
631,0.558906
632,0.551453
633,0.544001
634,0.536588
635,0.529179
636,0.52177
637,0.514361
638,0.507148
639,0.500069
640,0.492991
641,0.485912
642,0.478504
643,0.470962
644,0.463419
645,0.455808
646,0.448003
647,0.440198
648,0.432392
649,0.424161
650,0.415829
651,0.407498
652,0.39926
653,0.391192
654,0.383123
655,0.375055
656,0.366827
657,0.358583
658,0.350339
659,0.342015
660,0.333596
661,0.325177
662,0.316759
663,0.308778
664,0.300797
665,0.292816
666,0.285119
667,0.27765
668,0.270182
669,0.262714
670,0.255586
671,0.248626
672,0.241666
673,0.234706
674,0.228089
675,0.222093
676,0.216097
677,0.210102
678,0.204106
679,0.198673
680,0.1936
681,0.188527
682,0.183454
683,0.17838
684,0.173309
685,0.16945
686,0.165591
687,0.161732
688,0.157874
689,0.154015
690,0.150156
691,0.146401
692,0.143595
693,0.140788
694,0.137982
695,0.135175
696,0.132369
697,0.129562
698,0.126756
699,0.123949
700,0.121607
701,0.119786
702,0.117966
703,0.116145
704,0.114324
705,0.112503
706,0.110683
707,0.108862
708,0.107041
709,0.105221
710,0.104013
711,0.102819
712,0.101624
713,0.10043
714,0.0992354
715,0.0980409
716,0.0968465
717,0.095652
718,0.0944575
719,0.093416
720,0.0925346
721,0.0916533
722,0.0907719
723,0.0898905
724,0.0890092
725,0.0881278
726,0.0872464
727,0.0863651
728,0.0854837
729,0.0849609
730,0.0844391
731,0.0839172
732,0.0833954
733,0.0828735
734,0.0823516
735,0.0818298
736,0.0813079
737,0.0807861
738,0.080364
739,0.0800393
740,0.0797146
741,0.0793899
742,0.0790652
743,0.0787405
744,0.0784158
745,0.078091
746,0.0777663
747,0.0774427
748,0.0771875
749,0.0769324
750,0.0766773
751,0.0764222
752,0.076167
753,0.0759119
754,0.0756568
755,0.0754016
756,0.0751465
757,0.0749157
758,0.0747069
759,0.0744982
760,0.0742894
761,0.0740807
762,0.073872
763,0.0736632
764,0.0734545
765,0.0732457
766,0.0730385
767,0.0728762
768,0.0727138
769,0.0725515
770,0.0723891
771,0.0722267
772,0.0720644
773,0.071902
774,0.0717397
775,0.0715773
776,0.0713772
777,0.0711453
778,0.0709134
779,0.0706814
780,0.0704495
781,0.0702175
782,0.0699856
783,0.0697537
784,0.0695217
785,0.0692999
786,0.0692651
787,0.0692303
788,0.0691955
789,0.0691607