File: conjugated_ECPs/uv_vis_automated/Chem. Mater.,31, 17, 6841-6849, 2019/metadata/xyz122.csv
Wavelength (nm),Absorbance
330,0.223306
331,0.223375
332,0.223444
333,0.223513
334,0.223582
335,0.223138
336,0.222252
337,0.221366
338,0.22048
339,0.219595
340,0.218709
341,0.217823
342,0.216937
343,0.216052
344,0.215164
345,0.214209
346,0.213255
347,0.2123
348,0.211345
349,0.21039
350,0.209436
351,0.208481
352,0.207526
353,0.206571
354,0.205836
355,0.205306
356,0.204777
357,0.204248
358,0.203719
359,0.20319
360,0.202661
361,0.202132
362,0.201603
363,0.201077
364,0.201905
365,0.202733
366,0.203562
367,0.20439
368,0.205218
369,0.206046
370,0.206874
371,0.207703
372,0.208531
373,0.209704
374,0.211233
375,0.212763
376,0.214293
377,0.215823
378,0.217353
379,0.218883
380,0.220413
381,0.221943
382,0.223473
383,0.225307
384,0.227147
385,0.228988
386,0.230828
387,0.232669
388,0.234509
389,0.23635
390,0.23819
391,0.24003
392,0.241995
393,0.2441
394,0.246205
395,0.24831
396,0.250415
397,0.25252
398,0.254625
399,0.25673
400,0.258835
401,0.26094
402,0.263298
403,0.265668
404,0.268037
405,0.270407
406,0.272776
407,0.275146
408,0.277516
409,0.279885
410,0.282255
411,0.284773
412,0.287476
413,0.290179
414,0.292882
415,0.295585
416,0.298289
417,0.300992
418,0.303695
419,0.306398
420,0.309101
421,0.312038
422,0.314992
423,0.317946
424,0.3209
425,0.323854
426,0.326808
427,0.329761
428,0.332715
429,0.335782
430,0.339133
431,0.342484
432,0.345835
433,0.349186
434,0.352536
435,0.355887
436,0.359238
437,0.362735
438,0.366376
439,0.370017
440,0.373658
441,0.377299
442,0.38094
443,0.384581
444,0.388258
445,0.392129
446,0.396
447,0.399871
448,0.403742
449,0.407613
450,0.411484
451,0.415445
452,0.419697
453,0.423949
454,0.428201
455,0.432453
456,0.436704
457,0.440956
458,0.445343
459,0.449774
460,0.454205
461,0.458636
462,0.463067
463,0.467499
464,0.472128
465,0.476843
466,0.481559
467,0.486274
468,0.490989
469,0.495704
470,0.500585
471,0.505555
472,0.510526
473,0.515497
474,0.520468
475,0.525445
476,0.530665
477,0.535884
478,0.541104
479,0.546323
480,0.551543
481,0.556859
482,0.562194
483,0.56753
484,0.572865
485,0.578201
486,0.583661
487,0.58919
488,0.594719
489,0.600248
490,0.605777
491,0.611366
492,0.617026
493,0.622686
494,0.628346
495,0.634007
496,0.639798
497,0.645643
498,0.651489
499,0.657335
500,0.663181
501,0.669027
502,0.674872
503,0.680718
504,0.68657
505,0.692527
506,0.698485
507,0.704442
508,0.710399
509,0.716315
510,0.722217
511,0.728118
512,0.73402
513,0.739892
514,0.745721
515,0.751549
516,0.757378
517,0.763207
518,0.769058
519,0.774921
520,0.780784
521,0.786646
522,0.792509
523,0.798145
524,0.803754
525,0.809364
526,0.814973
527,0.820555
528,0.825968
529,0.831381
530,0.836793
531,0.842206
532,0.847619
533,0.852737
534,0.85784
535,0.862944
536,0.868047
537,0.873151
538,0.878106
539,0.883016
540,0.887927
541,0.892837
542,0.897747
543,0.902566
544,0.907317
545,0.912069
546,0.916821
547,0.921572
548,0.926324
549,0.930505
550,0.934661
551,0.938817
552,0.942973
553,0.947128
554,0.951284
555,0.954888
556,0.957875
557,0.960862
558,0.963849
559,0.966836
560,0.969822
561,0.972809
562,0.975796
563,0.978417
564,0.979982
565,0.981546
566,0.983111
567,0.984675
568,0.986239
569,0.987804
570,0.989368
571,0.990933
572,0.992497
573,0.99299
574,0.993116
575,0.993243
576,0.993369
577,0.993496
578,0.993622
579,0.993749
580,0.993875
581,0.994002
582,0.993954
583,0.993333
584,0.992711
585,0.99209
586,0.991469
587,0.990848
588,0.990227
589,0.989606
590,0.988985
591,0.988363
592,0.986937
593,0.9852
594,0.983463
595,0.981726
596,0.979989
597,0.978252
598,0.976515
599,0.974778
600,0.973041
601,0.970928
602,0.967402
603,0.963877
604,0.960351
605,0.956826
606,0.9533
607,0.949775
608,0.946249
609,0.941221
610,0.935949
611,0.930677
612,0.925404
613,0.919988
614,0.913338
615,0.906688
616,0.900038
617,0.893155
618,0.885413
619,0.877671
620,0.869929
621,0.861661
622,0.853223
623,0.844785
624,0.836372
625,0.828021
626,0.81967
627,0.811319
628,0.802895
629,0.794457
630,0.786019
631,0.777613
632,0.769262
633,0.760911
634,0.75256
635,0.744609
636,0.736692
637,0.728776
638,0.72106
639,0.713579
640,0.706098
641,0.698617
642,0.691223
643,0.683828
644,0.676434
645,0.669134
646,0.661914
647,0.654694
648,0.647473
649,0.640253
650,0.633033
651,0.625813
652,0.618375
653,0.610806
654,0.603238
655,0.595598
656,0.587594
657,0.579591
658,0.571588
659,0.563523
660,0.555433
661,0.547343
662,0.53908
663,0.530298
664,0.521516
665,0.512639
666,0.503426
667,0.494213
668,0.484999
669,0.475778
670,0.466556
671,0.457335
672,0.447876
673,0.438332
674,0.428788
675,0.419456
676,0.41021
677,0.400964
678,0.392032
679,0.383246
680,0.37446
681,0.365733
682,0.357208
683,0.348683
684,0.340157
685,0.33243
686,0.324945
687,0.31746
688,0.309974
689,0.303145
690,0.296408
691,0.289671
692,0.282935
693,0.27676
694,0.271041
695,0.265321
696,0.259602
697,0.253883
698,0.248918
699,0.244146
700,0.239374
701,0.234601
702,0.229829
703,0.225249
704,0.221568
705,0.217886
706,0.214205
707,0.210524
708,0.206843
709,0.203161
710,0.199734
711,0.197038
712,0.194341
713,0.191645
714,0.188948
715,0.186252
716,0.183555
717,0.180859
718,0.178162
719,0.175975
720,0.174111
721,0.172248
722,0.170384
723,0.168521
724,0.166657
725,0.164794
726,0.16293
727,0.161067
728,0.15926
729,0.157972
730,0.156684
731,0.155395
732,0.154107
733,0.152819
734,0.15153
735,0.150242
736,0.148954
737,0.147665
738,0.146587
739,0.145655
740,0.144723
741,0.143791
742,0.14286
743,0.141928
744,0.140996
745,0.140064
746,0.139133
747,0.138228
748,0.137653
749,0.137078
750,0.136503
751,0.135927
752,0.135352
753,0.134777
754,0.134202
755,0.133627
756,0.133052
757,0.132567
758,0.132153
759,0.131739
760,0.131325
761,0.130911
762,0.130497
763,0.130083
764,0.129669
765,0.129255
766,0.128843
767,0.128475
768,0.128107
769,0.127739
770,0.127371
771,0.127002
772,0.126634
773,0.126266
774,0.125898
775,0.12553
776,0.125212
777,0.124936
778,0.12466
779,0.124384
780,0.124107
781,0.123831
782,0.123555
783,0.123279
784,0.123003
785,0.122727
786,0.122463
787,0.122198
788,0.121934
789,0.121669