File: conjugated_ECPs/uv_vis_automated/Chem. Mater.,31, 17, 6841-6849, 2019/metadata/xyz131.csv
Wavelength (nm),Absorbance
330,0.227549
331,0.225798
332,0.224047
333,0.222295
334,0.220619
335,0.219112
336,0.217604
337,0.216097
338,0.214589
339,0.213081
340,0.211574
341,0.210066
342,0.208559
343,0.207051
344,0.206453
345,0.206059
346,0.205665
347,0.20527
348,0.204876
349,0.204482
350,0.204087
351,0.203693
352,0.203299
353,0.20337
354,0.204402
355,0.205434
356,0.206466
357,0.207498
358,0.20853
359,0.209562
360,0.210595
361,0.211627
362,0.212659
363,0.214166
364,0.215766
365,0.217366
366,0.218967
367,0.220567
368,0.222167
369,0.223768
370,0.225368
371,0.226969
372,0.228709
373,0.230715
374,0.232721
375,0.234727
376,0.236734
377,0.23874
378,0.240746
379,0.242752
380,0.244759
381,0.246765
382,0.249635
383,0.252654
384,0.255674
385,0.258693
386,0.261712
387,0.264731
388,0.26775
389,0.27077
390,0.273789
391,0.276808
392,0.279827
393,0.282534
394,0.285199
395,0.287863
396,0.290528
397,0.293193
398,0.295857
399,0.298522
400,0.301745
401,0.30517
402,0.308596
403,0.312021
404,0.315447
405,0.318872
406,0.322298
407,0.325897
408,0.329755
409,0.333614
410,0.337473
411,0.341332
412,0.345191
413,0.34905
414,0.353073
415,0.357263
416,0.361452
417,0.365642
418,0.369832
419,0.374021
420,0.378219
421,0.382715
422,0.387211
423,0.391707
424,0.396203
425,0.400699
426,0.405195
427,0.409855
428,0.414517
429,0.419179
430,0.423841
431,0.428503
432,0.433318
433,0.438385
434,0.443452
435,0.448519
436,0.453587
437,0.458685
438,0.463908
439,0.469131
440,0.474355
441,0.479578
442,0.484808
443,0.490343
444,0.495878
445,0.501413
446,0.506948
447,0.512483
448,0.518293
449,0.524152
450,0.530012
451,0.535871
452,0.541617
453,0.546358
454,0.551098
455,0.555838
456,0.560579
457,0.565319
458,0.571162
459,0.577233
460,0.583304
461,0.589375
462,0.595478
463,0.601793
464,0.608107
465,0.614422
466,0.620736
467,0.626529
468,0.63224
469,0.637951
470,0.643663
471,0.64992
472,0.656624
473,0.663328
474,0.670032
475,0.676514
476,0.682439
477,0.688363
478,0.694288
479,0.700212
480,0.706057
481,0.711785
482,0.717513
483,0.723241
484,0.728969
485,0.73474
486,0.740777
487,0.746813
488,0.75285
489,0.758886
490,0.765168
491,0.771636
492,0.778105
493,0.784573
494,0.791042
495,0.797541
496,0.804041
497,0.81054
498,0.817039
499,0.822338
500,0.827561
501,0.832785
502,0.838008
503,0.843231
504,0.848132
505,0.852932
506,0.857733
507,0.862534
508,0.867335
509,0.872056
510,0.876346
511,0.880636
512,0.884926
513,0.889216
514,0.893506
515,0.897795
516,0.901866
517,0.905834
518,0.909803
519,0.913771
520,0.91774
521,0.921708
522,0.925677
523,0.929331
524,0.932898
525,0.936464
526,0.940031
527,0.943597
528,0.947164
529,0.95073
530,0.954287
531,0.957202
532,0.960118
533,0.963034
534,0.96595
535,0.968866
536,0.971781
537,0.974697
538,0.977613
539,0.980529
540,0.982187
541,0.983787
542,0.985388
543,0.986988
544,0.988588
545,0.990189
546,0.991789
547,0.99339
548,0.99499
549,0.995862
550,0.995897
551,0.995932
552,0.995967
553,0.996001
554,0.996036
555,0.996071
556,0.996106
557,0.996141
558,0.996175
559,0.995431
560,0.994665
561,0.9939
562,0.993135
563,0.992369
564,0.991604
565,0.990839
566,0.990073
567,0.989308
568,0.988128
569,0.986504
570,0.984881
571,0.983257
572,0.981634
573,0.98001
574,0.978387
575,0.976763
576,0.975139
577,0.973516
578,0.97101
579,0.968497
580,0.965984
581,0.963471
582,0.960958
583,0.958445
584,0.955932
585,0.953419
586,0.950357
587,0.946334
588,0.942312
589,0.938289
590,0.934267
591,0.930244
592,0.926221
593,0.920985
594,0.915601
595,0.910218
596,0.904835
597,0.899269
598,0.892646
599,0.886023
600,0.8794
601,0.872777
602,0.864117
603,0.855048
604,0.845979
605,0.837168
606,0.82864
607,0.820112
608,0.811741
609,0.803736
610,0.795731
611,0.787726
612,0.779344
613,0.770925
614,0.762506
615,0.754046
616,0.745539
617,0.737032
618,0.728529
619,0.720592
620,0.712655
621,0.704718
622,0.697061
623,0.689628
624,0.682195
625,0.674816
626,0.667534
627,0.660252
628,0.65297
629,0.645687
630,0.638672
631,0.632132
632,0.625592
633,0.619053
634,0.612513
635,0.606168
636,0.599918
637,0.593667
638,0.587416
639,0.58111
640,0.574501
641,0.567892
642,0.561283
643,0.554675
644,0.547566
645,0.540241
646,0.532916
647,0.525591
648,0.51824
649,0.510883
650,0.503525
651,0.496168
652,0.488261
653,0.480206
654,0.472152
655,0.464333
656,0.457251
657,0.45017
658,0.443089
659,0.435949
660,0.428383
661,0.420817
662,0.413251
663,0.405799
664,0.398432
665,0.391065
666,0.383882
667,0.378035
668,0.372189
669,0.366342
670,0.360495
671,0.354648
672,0.348942
673,0.343244
674,0.337546
675,0.331848
676,0.326252
677,0.321068
678,0.315884
679,0.3107
680,0.305516
681,0.300347
682,0.295887
683,0.291426
684,0.286966
685,0.282506
686,0.278046
687,0.273585
688,0.270083
689,0.266598
690,0.263113
691,0.259629
692,0.256144
693,0.252659
694,0.249175
695,0.245904
696,0.243409
697,0.240913
698,0.238418
699,0.235922
700,0.233427
701,0.230931
702,0.228436
703,0.22594
704,0.223533
705,0.221596
706,0.219659
707,0.217722
708,0.215786
709,0.213849
710,0.211912
711,0.209976
712,0.208039
713,0.206102
714,0.204521
715,0.203117
716,0.201714
717,0.200311
718,0.198908
719,0.197505
720,0.196101
721,0.194698
722,0.193295
723,0.19194
724,0.190815
725,0.18969
726,0.188566
727,0.187441
728,0.186316
729,0.185191
730,0.184066
731,0.182941
732,0.181816
733,0.180818
734,0.179879
735,0.178939
736,0.178
737,0.177061
738,0.176121
739,0.175182
740,0.174243
741,0.173303
742,0.172386
743,0.171563
744,0.170739
745,0.169916
746,0.169093
747,0.168269
748,0.167446
749,0.166623
750,0.165799
751,0.164976
752,0.164226
753,0.163507
754,0.162788
755,0.162069
756,0.16135
757,0.160631
758,0.159912
759,0.159193
760,0.158474
761,0.157762
762,0.157078
763,0.156393
764,0.155709
765,0.155025
766,0.154341
767,0.153657
768,0.152972
769,0.152288
770,0.151604
771,0.150961
772,0.150335
773,0.149709
774,0.149083
775,0.148456
776,0.14783
777,0.147204
778,0.146578
779,0.145951
780,0.145336
781,0.144756
782,0.144176
783,0.143596
784,0.143016
785,0.142437
786,0.141857
787,0.141277
788,0.140697
789,0.140117