File: conjugated_ECPs/uv_vis_automated/Chem. Mater.,31, 17, 6841-6849, 2019/metadata/xyz112.csv
Wavelength (nm),Absorbance
310,0.184062
311,0.184609
312,0.185156
313,0.185702
314,0.186249
315,0.185694
316,0.18488
317,0.184065
318,0.183251
319,0.182437
320,0.181623
321,0.180809
322,0.179995
323,0.17918
324,0.178054
325,0.176414
326,0.174774
327,0.173134
328,0.171494
329,0.169854
330,0.168214
331,0.166574
332,0.164934
333,0.163294
334,0.161665
335,0.160037
336,0.158408
337,0.15678
338,0.155152
339,0.153523
340,0.151895
341,0.150267
342,0.148638
343,0.147578
344,0.147055
345,0.146531
346,0.146008
347,0.145485
348,0.144961
349,0.144438
350,0.143914
351,0.143391
352,0.142947
353,0.143389
354,0.143831
355,0.144273
356,0.144715
357,0.145157
358,0.145599
359,0.146041
360,0.146483
361,0.146925
362,0.147912
363,0.149191
364,0.150471
365,0.15175
366,0.15303
367,0.154309
368,0.155589
369,0.156868
370,0.158147
371,0.159552
372,0.161401
373,0.16325
374,0.1651
375,0.166949
376,0.168798
377,0.170648
378,0.172497
379,0.174347
380,0.176196
381,0.178366
382,0.180622
383,0.182879
384,0.185135
385,0.187391
386,0.189648
387,0.191904
388,0.194161
389,0.196417
390,0.198769
391,0.201293
392,0.203817
393,0.206341
394,0.208865
395,0.211389
396,0.213913
397,0.216436
398,0.21896
399,0.221484
400,0.224427
401,0.227403
402,0.23038
403,0.233357
404,0.236334
405,0.239311
406,0.242287
407,0.245264
408,0.248241
409,0.251452
410,0.254683
411,0.257914
412,0.261146
413,0.264377
414,0.267608
415,0.270839
416,0.27407
417,0.277558
418,0.28112
419,0.284682
420,0.288244
421,0.291806
422,0.295369
423,0.298931
424,0.302643
425,0.306513
426,0.310383
427,0.314254
428,0.318124
429,0.321994
430,0.325864
431,0.329856
432,0.333921
433,0.337986
434,0.34205
435,0.346115
436,0.35018
437,0.354298
438,0.358635
439,0.362972
440,0.367309
441,0.371646
442,0.375983
443,0.380359
444,0.384901
445,0.389443
446,0.393985
447,0.398526
448,0.403068
449,0.407789
450,0.41262
451,0.41745
452,0.42228
453,0.427111
454,0.431949
455,0.436934
456,0.441919
457,0.446904
458,0.451889
459,0.456874
460,0.462016
461,0.467333
462,0.47265
463,0.477967
464,0.483283
465,0.488626
466,0.494021
467,0.499416
468,0.504811
469,0.510206
470,0.515651
471,0.52132
472,0.526988
473,0.532657
474,0.538325
475,0.543997
476,0.549728
477,0.55546
478,0.561192
479,0.566924
480,0.572672
481,0.578455
482,0.584238
483,0.590021
484,0.595804
485,0.60165
486,0.607535
487,0.61342
488,0.619306
489,0.625191
490,0.63125
491,0.63733
492,0.64341
493,0.64949
494,0.65557
495,0.661649
496,0.667729
497,0.673809
498,0.679889
499,0.685969
500,0.692049
501,0.698128
502,0.704205
503,0.710172
504,0.716139
505,0.722106
506,0.728074
507,0.73398
508,0.739865
509,0.745751
510,0.751636
511,0.757514
512,0.763144
513,0.768773
514,0.774403
515,0.780032
516,0.785662
517,0.791119
518,0.796553
519,0.801987
520,0.807421
521,0.812855
522,0.818173
523,0.823451
524,0.828728
525,0.834006
526,0.839284
527,0.844422
528,0.849465
529,0.854508
530,0.859551
531,0.864594
532,0.869481
533,0.874178
534,0.878874
535,0.88357
536,0.888267
537,0.892963
538,0.897268
539,0.901516
540,0.905765
541,0.910014
542,0.914263
543,0.918512
544,0.922394
545,0.925818
546,0.929243
547,0.932668
548,0.936092
549,0.939517
550,0.942941
551,0.946366
552,0.94905
553,0.951457
554,0.953865
555,0.956273
556,0.958681
557,0.961088
558,0.963496
559,0.965904
560,0.968312
561,0.970179
562,0.971842
563,0.973506
564,0.975169
565,0.976832
566,0.978496
567,0.980159
568,0.981822
569,0.983485
570,0.985032
571,0.9863
572,0.987568
573,0.988836
574,0.990104
575,0.991371
576,0.992639
577,0.993907
578,0.995175
579,0.996443
580,0.996828
581,0.997072
582,0.997317
583,0.997561
584,0.997805
585,0.998049
586,0.998294
587,0.998538
588,0.998782
589,0.998201
590,0.996528
591,0.994855
592,0.993182
593,0.991509
594,0.989836
595,0.988163
596,0.98649
597,0.984817
598,0.982178
599,0.978244
600,0.974309
601,0.970374
602,0.966439
603,0.962505
604,0.95857
605,0.953857
606,0.948552
607,0.943246
608,0.937941
609,0.932636
610,0.926766
611,0.920799
612,0.914832
613,0.908865
614,0.902934
615,0.897032
616,0.891129
617,0.885227
618,0.879324
619,0.873886
620,0.86853
621,0.863174
622,0.857818
623,0.852462
624,0.847556
625,0.842839
626,0.838122
627,0.833405
628,0.828688
629,0.824055
630,0.819976
631,0.815898
632,0.811819
633,0.807741
634,0.803662
635,0.799565
636,0.795343
637,0.791121
638,0.786899
639,0.782677
640,0.778455
641,0.774131
642,0.769104
643,0.764078
644,0.759052
645,0.754025
646,0.748999
647,0.742306
648,0.735582
649,0.728857
650,0.721975
651,0.713971
652,0.705966
653,0.697962
654,0.688885
655,0.679335
656,0.669785
657,0.658076
658,0.64541
659,0.63307
660,0.621522
661,0.609973
662,0.597321
663,0.584127
664,0.571297
665,0.559246
666,0.547194
667,0.534826
668,0.522394
669,0.509922
670,0.497334
671,0.484746
672,0.472886
673,0.461357
674,0.449828
675,0.438252
676,0.426668
677,0.416534
678,0.407255
679,0.397977
680,0.388515
681,0.378898
682,0.369281
683,0.360204
684,0.351583
685,0.342963
686,0.334458
687,0.326874
688,0.31929
689,0.311706
690,0.304374
691,0.297787
692,0.291201
693,0.284614
694,0.278028
695,0.272844
696,0.267711
697,0.262577
698,0.257444
699,0.25231
700,0.24795
701,0.243758
702,0.239566
703,0.235374
704,0.231182
705,0.22699
706,0.223198
707,0.220031
708,0.216865
709,0.213698
710,0.210532
711,0.207365
712,0.204199
713,0.201032
714,0.198096
715,0.195875
716,0.193653
717,0.191432
718,0.18921
719,0.186989
720,0.184767
721,0.182546
722,0.180324
723,0.178103
724,0.176391
725,0.174798
726,0.173205
727,0.171611
728,0.170018
729,0.168424
730,0.166831
731,0.165237
732,0.163644
733,0.16221
734,0.161035
735,0.15986
736,0.158686
737,0.157511
738,0.156336
739,0.155161
740,0.153987
741,0.152812
742,0.151637
743,0.150738
744,0.149854
745,0.14897
746,0.148086
747,0.147202
748,0.146318
749,0.145434