File: conjugated_ECPs/uv_vis_automated/Chem. Mater.,31, 17, 6841-6849, 2019/metadata/xyz221.txt
Wavelength (nm),Absorbance
320,0.322
321,0.320628
322,0.319255
323,0.317883
324,0.31651
325,0.315138
326,0.313765
327,0.312112
328,0.31039
329,0.308669
330,0.306948
331,0.305226
332,0.303505
333,0.301783
334,0.300062
335,0.29834
336,0.296767
337,0.295441
338,0.294115
339,0.292789
340,0.291463
341,0.290137
342,0.288811
343,0.287485
344,0.286159
345,0.284833
346,0.284559
347,0.28435
348,0.28414
349,0.283931
350,0.283722
351,0.283512
352,0.283303
353,0.283094
354,0.282884
355,0.284114
356,0.286726
357,0.289338
358,0.291949
359,0.294561
360,0.297173
361,0.299784
362,0.302396
363,0.305667
364,0.30911
365,0.312553
366,0.315996
367,0.319439
368,0.322882
369,0.326325
370,0.330191
371,0.334086
372,0.337982
373,0.341877
374,0.345772
375,0.349668
376,0.353609
377,0.358125
378,0.362641
379,0.367157
380,0.371673
381,0.376189
382,0.38091
383,0.385836
384,0.390762
385,0.395688
386,0.400614
387,0.405679
388,0.410995
389,0.416312
390,0.421629
391,0.426946
392,0.432312
393,0.437863
394,0.443415
395,0.448966
396,0.454517
397,0.460085
398,0.465885
399,0.471685
400,0.477485
401,0.483285
402,0.489184
403,0.495264
404,0.501343
405,0.507423
406,0.513518
407,0.519823
408,0.526128
409,0.532433
410,0.538738
411,0.54513
412,0.551548
413,0.557965
414,0.564383
415,0.570828
416,0.577302
417,0.583776
418,0.59025
419,0.596747
420,0.603333
421,0.60992
422,0.616506
423,0.623093
424,0.629782
425,0.636481
426,0.64318
427,0.649879
428,0.656614
429,0.663369
430,0.670125
431,0.67688
432,0.68361
433,0.69029
434,0.69697
435,0.703651
436,0.710327
437,0.716932
438,0.723537
439,0.730143
440,0.736748
441,0.743166
442,0.749528
443,0.755889
444,0.76225
445,0.768638
446,0.775056
447,0.781474
448,0.787891
449,0.794244
450,0.800324
451,0.806404
452,0.812483
453,0.818563
454,0.824337
455,0.83008
456,0.835822
457,0.841564
458,0.847168
459,0.852686
460,0.858205
461,0.863723
462,0.869242
463,0.874191
464,0.879077
465,0.883964
466,0.888851
467,0.893737
468,0.89839
469,0.902968
470,0.907546
471,0.912124
472,0.916702
473,0.921159
474,0.925082
475,0.929006
476,0.932929
477,0.936852
478,0.940776
479,0.944699
480,0.948379
481,0.951553
482,0.954728
483,0.957902
484,0.961077
485,0.964251
486,0.967425
487,0.9706
488,0.973774
489,0.976222
490,0.978427
491,0.980632
492,0.982838
493,0.985043
494,0.987248
495,0.989454
496,0.991659
497,0.993864
498,0.995412
499,0.996476
500,0.99754
501,0.998604
502,0.999668
503,1.00073
504,1.0018
505,1.00286
506,1.00299
507,1.00271
508,1.00243
509,1.00215
510,1.00187
511,1.00159
512,1.0013
513,1.00102
514,1.00042
515,0.998546
516,0.996669
517,0.994793
518,0.992916
519,0.99099
520,0.98864
521,0.986289
522,0.983938
523,0.981587
524,0.979236
525,0.976885
526,0.974534
527,0.972183
528,0.969832
529,0.967481
530,0.964944
531,0.961465
532,0.957985
533,0.954506
534,0.951027
535,0.947547
536,0.944068
537,0.940589
538,0.936586
539,0.931938
540,0.92729
541,0.922642
542,0.917994
543,0.913346
544,0.908697
545,0.904049
546,0.899401
547,0.894438
548,0.889082
549,0.883726
550,0.878369
551,0.873013
552,0.867657
553,0.861877
554,0.856034
555,0.850191
556,0.844349
557,0.838443
558,0.832194
559,0.825945
560,0.819697
561,0.813448
562,0.806955
563,0.800425
564,0.793894
565,0.787364
566,0.780801
567,0.774215
568,0.767628
569,0.761042
570,0.754329
571,0.74731
572,0.740292
573,0.733274
574,0.726256
575,0.7192
576,0.712145
577,0.705089
578,0.698033
579,0.690496
580,0.682771
581,0.675047
582,0.667322
583,0.659508
584,0.651679
585,0.643851
586,0.635946
587,0.627942
588,0.619937
589,0.611933
590,0.603664
591,0.595396
592,0.587128
593,0.57901
594,0.571006
595,0.563001
596,0.554972
597,0.546792
598,0.538611
599,0.530431
600,0.522501
601,0.514673
602,0.506844
603,0.499074
604,0.49145
605,0.483827
606,0.476204
607,0.469032
608,0.461938
609,0.454843
610,0.447749
611,0.441048
612,0.434349
613,0.42765
614,0.420951
615,0.414411
616,0.407937
617,0.401463
618,0.394989
619,0.38861
620,0.382361
621,0.376112
622,0.369864
623,0.363655
624,0.35771
625,0.351765
626,0.34582
627,0.339875
628,0.333873
629,0.327791
630,0.32171
631,0.315628
632,0.309547
633,0.303427
634,0.297291
635,0.291155
636,0.285019
637,0.27894
638,0.272944
639,0.266948
640,0.260952
641,0.254955
642,0.249078
643,0.243252
644,0.237427
645,0.231601
646,0.225775
647,0.220154
648,0.214535
649,0.208917
650,0.203299
651,0.19785
652,0.192867
653,0.187883
654,0.1829
655,0.177917
656,0.172933
657,0.168628
658,0.164624
659,0.16062
660,0.156615
661,0.152611
662,0.148607
663,0.144602
664,0.1415
665,0.138579
666,0.135658
667,0.132736
668,0.129815
669,0.126894
670,0.123972
671,0.121051
672,0.118398
673,0.116514
674,0.11463
675,0.112745
676,0.110861
677,0.108977
678,0.107093
679,0.105208
680,0.103324
681,0.10144
682,0.100171
683,0.0990314
684,0.0978916
685,0.0967517
686,0.0956118
687,0.094472
688,0.0933321
689,0.0921923
690,0.0910524
691,0.0901011
692,0.0894381
693,0.0887751
694,0.0881122
695,0.0874492
696,0.0867862
697,0.0861232
698,0.0854603
699,0.0847973
700,0.0841343
701,0.0837179
702,0.0833108
703,0.0829037
704,0.0824966
705,0.0820895
706,0.0816824
707,0.0812753
708,0.0808683
709,0.0804612
710,0.0801654
711,0.0799677
712,0.0797699
713,0.0795722
714,0.0793745
715,0.0791768
716,0.078979
717,0.0787813
718,0.0785836
719,0.0783905
720,0.0782393
721,0.0780881
722,0.0779369
723,0.0777857
724,0.0776345
725,0.0774833
726,0.077332
727,0.0771808
728,0.0770296
729,0.0769717
730,0.0769601
731,0.0769484
732,0.0769368
733,0.0769252
734,0.0769135
735,0.0769019
736,0.0768903
737,0.0768786
738,0.0768917
739,0.0769848
740,0.0770778
741,0.0771709
742,0.0772639
743,0.077357
744,0.07745
745,0.0775431
746,0.0776361
747,0.0777292
748,0.0777791
749,0.0778184