File: conjugated_ECPs/uv_vis_automated/Chem. Mater.,31, 17, 6841-6849, 2019/metadata/xyz211.csv
Wavelength (nm),Absorbance
330,0.3865
331,0.385637
332,0.385013
333,0.385956
334,0.386899
335,0.387842
336,0.388786
337,0.389729
338,0.390672
339,0.391615
340,0.392559
341,0.393502
342,0.395457
343,0.398033
344,0.400609
345,0.403184
346,0.40576
347,0.408336
348,0.410911
349,0.413487
350,0.416063
351,0.420015
352,0.424006
353,0.427996
354,0.431987
355,0.435977
356,0.439968
357,0.444008
358,0.448887
359,0.453766
360,0.458645
361,0.463524
362,0.468403
363,0.473593
364,0.479186
365,0.484779
366,0.490371
367,0.495964
368,0.501766
369,0.507668
370,0.513569
371,0.519471
372,0.52559
373,0.532104
374,0.538618
375,0.545132
376,0.551651
377,0.558332
378,0.565013
379,0.571694
380,0.578375
381,0.585253
382,0.592212
383,0.599172
384,0.606131
385,0.613156
386,0.620285
387,0.627415
388,0.634544
389,0.641847
390,0.649329
391,0.65681
392,0.664294
393,0.671862
394,0.679431
395,0.686999
396,0.694517
397,0.701998
398,0.709479
399,0.716971
400,0.724539
401,0.732107
402,0.739676
403,0.747072
404,0.754379
405,0.761687
406,0.769011
407,0.776405
408,0.7838
409,0.791194
410,0.798426
411,0.805602
412,0.812778
413,0.819954
414,0.826898
415,0.833802
416,0.840705
417,0.847609
418,0.854278
419,0.860736
420,0.867195
421,0.873653
422,0.880006
423,0.885944
424,0.891883
425,0.897821
426,0.90376
427,0.909325
428,0.914429
429,0.919532
430,0.924636
431,0.929739
432,0.934645
433,0.938986
434,0.943328
435,0.947669
436,0.95201
437,0.956352
438,0.960403
439,0.96334
440,0.966277
441,0.969214
442,0.972151
443,0.975088
444,0.978025
445,0.980962
446,0.983898
447,0.985075
448,0.986237
449,0.987399
450,0.988561
451,0.989723
452,0.990884
453,0.992046
454,0.993208
455,0.99437
456,0.994582
457,0.993766
458,0.992949
459,0.992132
460,0.991316
461,0.990499
462,0.989682
463,0.988865
464,0.988049
465,0.987232
466,0.984789
467,0.982292
468,0.979795
469,0.977298
470,0.974801
471,0.972304
472,0.969807
473,0.96731
474,0.964375
475,0.960515
476,0.956654
477,0.952793
478,0.948932
479,0.945072
480,0.941211
481,0.936923
482,0.932003
483,0.927083
484,0.922163
485,0.917243
486,0.912323
487,0.907187
488,0.90199
489,0.896794
490,0.891598
491,0.885592
492,0.878632
493,0.871673
494,0.864714
495,0.857887
496,0.851902
497,0.845917
498,0.839932
499,0.833947
500,0.827095
501,0.820043
502,0.812991
503,0.805939
504,0.798986
505,0.792042
506,0.785099
507,0.77816
508,0.771391
509,0.764623
510,0.757854
511,0.750933
512,0.743064
513,0.735196
514,0.727327
515,0.719458
516,0.712243
517,0.705175
518,0.698108
519,0.69104
520,0.683944
521,0.676846
522,0.669747
523,0.662651
524,0.655636
525,0.648621
526,0.641606
527,0.634591
528,0.627814
529,0.621133
530,0.614452
531,0.607771
532,0.601111
533,0.594486
534,0.587861
535,0.581236
536,0.574652
537,0.568695
538,0.562738
539,0.556781
540,0.550824
541,0.545111
542,0.539484
543,0.533858
544,0.528231
545,0.522605
546,0.517189
547,0.511776
548,0.506363
549,0.50095
550,0.495537
551,0.490401
552,0.485337
553,0.480272
554,0.475207
555,0.470142
556,0.465273
557,0.460532
558,0.45579
559,0.451049
560,0.446307
561,0.441566
562,0.437203
563,0.432845
564,0.428487
565,0.424129
566,0.419771
567,0.415414
568,0.411311
569,0.407461
570,0.403612
571,0.399763
572,0.395913
573,0.392064
574,0.388214
575,0.384634
576,0.381245
577,0.377857
578,0.374468
579,0.371079
580,0.367691
581,0.364302
582,0.361034
583,0.35816
584,0.355286
585,0.352412
586,0.349539
587,0.346665
588,0.343791
589,0.340918
590,0.338044
591,0.3353
592,0.332648
593,0.329995
594,0.327343
595,0.324691
596,0.322038
597,0.319386
598,0.316733
599,0.314081
600,0.311193
601,0.308075
602,0.304957
603,0.301839
604,0.298722
605,0.295604
606,0.292486
607,0.289368
608,0.286251
609,0.282867
610,0.27944
611,0.276013
612,0.272587
613,0.26916
614,0.265733
615,0.262306
616,0.25888
617,0.25538
618,0.25184
619,0.2483
620,0.244761
621,0.241221
622,0.237681
623,0.234141
624,0.230601
625,0.227256
626,0.223942
627,0.220627
628,0.217313
629,0.213999
630,0.210684
631,0.20737
632,0.204055
633,0.201229
634,0.198667
635,0.196105
636,0.193543
637,0.190981
638,0.188419
639,0.185857
640,0.183295
641,0.180733
642,0.178549
643,0.176651
644,0.174753
645,0.172855
646,0.170957
647,0.169059
648,0.167161
649,0.165263
650,0.163365
651,0.161507
652,0.160299
653,0.159091
654,0.157884
655,0.156676
656,0.155468
657,0.15426
658,0.153052
659,0.151845
660,0.150637
661,0.149661
662,0.148879
663,0.148097
664,0.147315
665,0.146533
666,0.14575
667,0.144968
668,0.144186
669,0.143404
670,0.142632
671,0.142161
672,0.141689
673,0.141217
674,0.140746
675,0.140274
676,0.139802
677,0.139331
678,0.138859
679,0.138388
680,0.137957
681,0.137565
682,0.137173
683,0.136781
684,0.136388
685,0.135996
686,0.135604
687,0.135212
688,0.134819
689,0.134623
690,0.134454
691,0.134285
692,0.134117
693,0.133948
694,0.133779
695,0.133611
696,0.133442
697,0.133273
698,0.133104
699,0.132936
700,0.132767
701,0.132598
702,0.132562
703,0.132539
704,0.132516
705,0.132493
706,0.13247
707,0.132446
708,0.132423
709,0.1324
710,0.132377
711,0.132364
712,0.132364
713,0.132364
714,0.132364
715,0.132364
716,0.132364
717,0.132364
718,0.132364
719,0.132364
720,0.132364
721,0.132282
722,0.13219
723,0.132098
724,0.132006
725,0.131914
726,0.131822
727,0.13173
728,0.131638
729,0.131546
730,0.131522
731,0.131614
732,0.131706
733,0.131798
734,0.13189
735,0.131982
736,0.132074
737,0.132166
738,0.132258
739,0.13235
740,0.132285
741,0.132193
742,0.132102
743,0.13201
744,0.131919
745,0.131827
746,0.131736
747,0.131644
748,0.13169
749,0.131814
750,0.131937
751,0.13206
752,0.132183
753,0.132306
754,0.132429
755,0.132552
756,0.132675
757,0.132798
758,0.132921
759,0.133044
760,0.133167
761,0.13329
762,0.133413
763,0.133536
764,0.133659
765,0.133782
766,0.133905
767,0.134
768,0.133977
769,0.133954
770,0.133931
771,0.133908
772,0.133885
773,0.133862
774,0.133839
775,0.133816
776,0.133793
777,0.133871
778,0.133998
779,0.134125
780,0.134251
781,0.134378
782,0.134504
783,0.134631
784,0.134757
785,0.134884
786,0.135001
787,0.135069
788,0.135138
789,0.135207