File: conjugated_ECPs/uv_vis_automated/Chem. Mater.,31, 17, 6841-6849, 2019/metadata/xyz212.csv
Wavelength (nm),Absorbance
310,0.302281
311,0.30206
312,0.30184
313,0.30162
314,0.301197
315,0.299654
316,0.298112
317,0.29657
318,0.295027
319,0.293485
320,0.291942
321,0.2904
322,0.288858
323,0.287315
324,0.285542
325,0.283652
326,0.281762
327,0.279872
328,0.277981
329,0.276091
330,0.274201
331,0.27231
332,0.27042
333,0.268653
334,0.267481
335,0.26631
336,0.265139
337,0.263968
338,0.262796
339,0.261625
340,0.260454
341,0.259282
342,0.258111
343,0.257863
344,0.258048
345,0.258234
346,0.258419
347,0.258605
348,0.25879
349,0.258976
350,0.259161
351,0.259347
352,0.259872
353,0.261855
354,0.263838
355,0.265821
356,0.267805
357,0.269788
358,0.271771
359,0.273754
360,0.275737
361,0.27772
362,0.280565
363,0.283784
364,0.287003
365,0.290222
366,0.293441
367,0.29666
368,0.299879
369,0.303098
370,0.306365
371,0.310283
372,0.3142
373,0.318117
374,0.322035
375,0.325952
376,0.329869
377,0.333845
378,0.338112
379,0.342379
380,0.346646
381,0.350913
382,0.35518
383,0.359494
384,0.364134
385,0.368773
386,0.373412
387,0.378051
388,0.382691
389,0.387363
390,0.392379
391,0.397396
392,0.402413
393,0.407429
394,0.412446
395,0.417618
396,0.422958
397,0.428298
398,0.433638
399,0.438978
400,0.444436
401,0.450166
402,0.455895
403,0.461625
404,0.467355
405,0.473096
406,0.478913
407,0.48473
408,0.490547
409,0.496364
410,0.502317
411,0.508491
412,0.514665
413,0.520839
414,0.527028
415,0.533427
416,0.539825
417,0.546224
418,0.552623
419,0.559148
420,0.565715
421,0.572282
422,0.578849
423,0.585466
424,0.592145
425,0.598824
426,0.605504
427,0.61219
428,0.618925
429,0.625661
430,0.632396
431,0.639132
432,0.645777
433,0.6524
434,0.659023
435,0.665646
436,0.672353
437,0.679144
438,0.685936
439,0.692728
440,0.699519
441,0.706311
442,0.713102
443,0.719894
444,0.726686
445,0.733331
446,0.739955
447,0.746578
448,0.753201
449,0.759638
450,0.765925
451,0.772211
452,0.778498
453,0.784757
454,0.790931
455,0.797106
456,0.80328
457,0.809454
458,0.815448
459,0.821255
460,0.827063
461,0.832871
462,0.838679
463,0.844376
464,0.849833
465,0.85529
466,0.860747
467,0.866204
468,0.871612
469,0.876718
470,0.881824
471,0.88693
472,0.892037
473,0.897143
474,0.901846
475,0.906534
476,0.911222
477,0.915909
478,0.920597
479,0.925016
480,0.928945
481,0.932873
482,0.936802
483,0.94073
484,0.944659
485,0.948587
486,0.952025
487,0.954867
488,0.957709
489,0.960551
490,0.963393
491,0.966235
492,0.969077
493,0.971918
494,0.97476
495,0.976822
496,0.978715
497,0.980608
498,0.982501
499,0.984394
500,0.986287
501,0.988181
502,0.990074
503,0.991967
504,0.99386
505,0.994261
506,0.994619
507,0.994977
508,0.995335
509,0.995694
510,0.996052
511,0.99641
512,0.996768
513,0.997126
514,0.997358
515,0.996969
516,0.99658
517,0.996191
518,0.995802
519,0.995414
520,0.995025
521,0.994636
522,0.993956
523,0.9922
524,0.990443
525,0.988686
526,0.98693
527,0.985173
528,0.983416
529,0.98166
530,0.979903
531,0.978147
532,0.97639
533,0.974633
534,0.972877
535,0.970778
536,0.967756
537,0.964735
538,0.961713
539,0.958691
540,0.955669
541,0.952647
542,0.949625
543,0.946537
544,0.942604
545,0.938672
546,0.934739
547,0.930807
548,0.926875
549,0.922942
550,0.918722
551,0.914312
552,0.909902
553,0.905492
554,0.901082
555,0.896672
556,0.892165
557,0.887583
558,0.883001
559,0.878419
560,0.873837
561,0.869255
562,0.86451
563,0.859617
564,0.854724
565,0.84983
566,0.844937
567,0.840044
568,0.835098
569,0.830148
570,0.825198
571,0.820248
572,0.815297
573,0.809902
574,0.804349
575,0.798796
576,0.793242
577,0.787689
578,0.781408
579,0.775122
580,0.768836
581,0.762549
582,0.756138
583,0.749668
584,0.743197
585,0.736727
586,0.729637
587,0.722387
588,0.715137
589,0.707887
590,0.700352
591,0.69279
592,0.685228
593,0.677659
594,0.669854
595,0.662049
596,0.654243
597,0.646539
598,0.638909
599,0.631279
600,0.623693
601,0.616414
602,0.609135
603,0.601856
604,0.59486
605,0.587999
606,0.581139
607,0.574279
608,0.567902
609,0.561651
610,0.555401
611,0.54915
612,0.542937
613,0.53748
614,0.532023
615,0.526566
616,0.521109
617,0.515652
618,0.510672
619,0.505763
620,0.500855
621,0.495946
622,0.491037
623,0.486154
624,0.481343
625,0.476532
626,0.471721
627,0.46691
628,0.462099
629,0.457161
630,0.451779
631,0.446398
632,0.441016
633,0.435634
634,0.430253
635,0.424463
636,0.418416
637,0.41237
638,0.406323
639,0.400276
640,0.393632
641,0.386896
642,0.380161
643,0.373425
644,0.366353
645,0.359009
646,0.351666
647,0.344322
648,0.33655
649,0.32857
650,0.320589
651,0.312647
652,0.304841
653,0.297036
654,0.28923
655,0.281627
656,0.274085
657,0.266542
658,0.259043
659,0.251637
660,0.244232
661,0.236826
662,0.229833
663,0.223379
664,0.216924
665,0.210469
666,0.204111
667,0.198455
668,0.1928
669,0.187144
670,0.181489
671,0.176266
672,0.171764
673,0.167262
674,0.16276
675,0.158258
676,0.153756
677,0.149692
678,0.146495
679,0.143297
680,0.140099
681,0.136902
682,0.133704
683,0.130507
684,0.127309
685,0.124256
686,0.122099
687,0.119942
688,0.117785
689,0.115628
690,0.113471
691,0.111314
692,0.109157
693,0.107
694,0.104843
695,0.103204
696,0.101847
697,0.10049
698,0.0991336
699,0.0977767
700,0.0964199
701,0.095063
702,0.0937062
703,0.0923494
704,0.091067
705,0.0901856
706,0.0893042
707,0.0884229
708,0.0875415
709,0.0866602
710,0.0857788
711,0.0848974
712,0.0840161
713,0.0831347
714,0.0824308
715,0.0818162
716,0.0812016
717,0.0805869
718,0.0799723
719,0.0793577
720,0.078743
721,0.0781284
722,0.0775138
723,0.0769558
724,0.0766658
725,0.0763759
726,0.076086
727,0.0757961
728,0.0755061
729,0.0752162
730,0.0749263
731,0.0746364
732,0.0743465
733,0.0740645
734,0.0737861
735,0.0735078
736,0.0732295
737,0.0729512
738,0.0726728
739,0.0723945
740,0.0721162
741,0.0718378
742,0.0715751
743,0.071378
744,0.0711808
745,0.0709837
746,0.0707865
747,0.0705894
748,0.0703922
749,0.0701951