File: conjugated_ECPs/uv_vis_automated/Adv. Mater., 22, 4949-4953, 2010/metadata/ECP-2.txt
Wavelength (nm)	Absorbance
360	0.357919
361	0.35988
362	0.362645
363	0.36546
364	0.368275
365	0.37109
366	0.373905
367	0.37672
368	0.379535
369	0.382463
370	0.38573
371	0.388998
372	0.392266
373	0.395534
374	0.398802
375	0.40207
376	0.405337
377	0.408687
378	0.412044
379	0.415402
380	0.41876
381	0.422118
382	0.425476
383	0.428834
384	0.433646
385	0.438604
386	0.443561
387	0.448518
388	0.453475
389	0.457681
390	0.461801
391	0.46592
392	0.47004
393	0.474159
394	0.478279
395	0.483499
396	0.489715
397	0.495931
398	0.502146
399	0.508148
400	0.513123
401	0.518099
402	0.523075
403	0.528051
404	0.533027
405	0.539169
406	0.546001
407	0.552834
408	0.559666
409	0.565243
410	0.570358
411	0.575473
412	0.580588
413	0.585771
414	0.591252
415	0.596733
416	0.602214
417	0.607695
418	0.613567
419	0.619443
420	0.62532
421	0.628607
422	0.629218
423	0.629829
424	0.63044
425	0.631051
426	0.633973
427	0.639785
428	0.645596
429	0.651408
430	0.65722
431	0.663031
432	0.667982
433	0.672825
434	0.677668
435	0.682511
436	0.687354
437	0.692197
438	0.696801
439	0.700568
440	0.704335
441	0.708102
442	0.711868
443	0.715635
444	0.719402
445	0.724066
446	0.729447
447	0.734828
448	0.740209
449	0.74559
450	0.750972
451	0.756353
452	0.758744
453	0.760762
454	0.76278
455	0.764798
456	0.766816
457	0.768834
458	0.770852
459	0.77287
460	0.774888
461	0.77704
462	0.779193
463	0.781345
464	0.783498
465	0.78565
466	0.787803
467	0.789955
468	0.792108
469	0.79426
470	0.796413
471	0.798565
472	0.800717
473	0.80287
474	0.803587
475	0.803587
476	0.803587
477	0.803587
478	0.804018
479	0.805955
480	0.807892
481	0.80983
482	0.811767
483	0.813704
484	0.815067
485	0.816143
486	0.81722
487	0.818296
488	0.819372
489	0.820448
490	0.821525
491	0.821525
492	0.821525
493	0.821525
494	0.821525
495	0.821525
496	0.821525
497	0.821525
498	0.821525
499	0.821525
500	0.821525
501	0.821525
502	0.821525
503	0.821525
504	0.821525
505	0.821525
506	0.822242
507	0.823857
508	0.825471
509	0.827085
510	0.8287
511	0.829103
512	0.829507
513	0.82991
514	0.830314
515	0.830717
516	0.831121
517	0.831525
518	0.831928
519	0.832466
520	0.834081
521	0.835695
522	0.837309
523	0.838924
524	0.840538
525	0.842152
526	0.843528
527	0.844604
528	0.84568
529	0.846756
530	0.847833
531	0.848909
532	0.849985
533	0.850852
534	0.851659
535	0.852466
536	0.853274
537	0.854081
538	0.854888
539	0.855695
540	0.856502
541	0.857309
542	0.867444
543	0.878744
544	0.882511
545	0.882511
546	0.882511
547	0.882511
548	0.882511
549	0.882511
550	0.882511
551	0.884126
552	0.88574
553	0.887354
554	0.888969
555	0.890583
556	0.892197
557	0.895067
558	0.900448
559	0.90583
560	0.911211
561	0.913517
562	0.915823
563	0.918129
564	0.920436
565	0.922742
566	0.925048
567	0.927354
568	0.929865
569	0.933094
570	0.936323
571	0.939552
572	0.94278
573	0.946009
574	0.948592
575	0.950852
576	0.953112
577	0.955372
578	0.957632
579	0.959892
580	0.962152
581	0.964413
582	0.966673
583	0.968933
584	0.971193
585	0.974247
586	0.977937
587	0.981627
588	0.985317
589	0.989007
590	0.992697
591	0.996387
592	1.00008
593	0.988397
594	0.987024
595	0.985651
596	0.984278
597	0.982905
598	0.981532
599	0.980159
600	0.985408
601	0.992378
602	0.999348
603	1.0009
604	1.0009
605	1.0009
606	1.0009
607	1.0009
608	1.0009
609	1.00069
610	0.998847
611	0.997002
612	0.995157
613	0.993312
614	0.991467
615	0.989622
616	0.987777
617	0.986009
618	0.984395
619	0.98278
620	0.981166
621	0.979552
622	0.977937
623	0.976323
624	0.974709
625	0.973094
626	0.97148
627	0.969865
628	0.967892
629	0.964664
630	0.961435
631	0.958206
632	0.954978
633	0.951749
634	0.94852
635	0.944694
636	0.940389
637	0.936084
638	0.932018
639	0.928311
640	0.920777
641	0.913244
642	0.90571
643	0.900897
644	0.896861
645	0.892825
646	0.888789
647	0.877489
648	0.855964
649	0.849507
650	0.843049
651	0.836592
652	0.830135
653	0.811121
654	0.8
655	0.794619
656	0.789238
657	0.781345
658	0.76843
659	0.756233
660	0.749776
661	0.743318
662	0.734948
663	0.726338
664	0.717728
665	0.704756
666	0.688295
667	0.671833
668	0.655372
669	0.63891
670	0.670852
671	0.65713
672	0.643408
673	0.629686
674	0.615964
675	0.588341
676	0.588341
677	0.588341
678	0.586009
679	0.575516
680	0.565022
681	0.554529
682	0.544036
683	0.531659
684	0.500448
685	0.492377
686	0.484305
687	0.476233
688	0.466009
689	0.448251
690	0.430493
691	0.425327
692	0.420161
693	0.414996
694	0.40983
695	0.404664
696	0.369507
697	0.353363
698	0.338188
699	0.326402
700	0.314778
701	0.305033
702	0.295288
703	0.285543
704	0.276173
705	0.268036
706	0.2599
707	0.251764
708	0.243401
709	0.234958
710	0.226514
711	0.218071
712	0.211227
713	0.204584
714	0.197941
715	0.191342
716	0.185767
717	0.180191
718	0.174615
719	0.16904
720	0.163627
721	0.15838
722	0.153134
723	0.147887
724	0.142641
725	0.137721
726	0.133019
727	0.128317
728	0.123616
729	0.118914
730	0.11422
731	0.111079
732	0.107938
733	0.104798
734	0.101657
735	0.0985165
736	0.0953758
737	0.0922352
738	0.0899008
739	0.0879796
740	0.0860584
741	0.0841372
742	0.082216
743	0.0802948
744	0.0783736
745	0.0764524
746	0.07511218
747	0.0737913
748	0.0724705
749	0.0711497
750	0.0698289
751	0.068508
752	0.0671872
753	0.0658993
754	0.06469854
755	0.0634978
756	0.062297
757	0.0610963
758	0.0598955
759	0.05869476
760	0.057494
761	0.0569261
762	0.05681495
763	0.0567038
764	0.0565926
765	0.0564814
766	0.0563702
767	0.056259
768	0.0561479
769	0.0561156
770	0.0560934
771	0.05607114
772	0.0560489
773	0.0560267
774	0.0560044
775	0.0559822
776	0.05594357
777	0.0558368
778	0.0557301
779	0.0556234
780	0.0555166
781	0.0554099
782	0.0553032
783	0.0551964
784	0.0552633
785	0.0555035
786	0.0557436
787	0.0559838
788	0.0562239
789	0.05646407
790	0.0567042
791	0.0569444
792	0.0569692
793	0.0569425
794	0.0569158
795	0.0568891
796	0.0568624
797	0.0568358
798	0.0568091
799	0.0567991