File: conjugated_ECPs/uv_vis_automated/Adv. Mater., 22, 4949-4953, 2010/metadata/ECP-1.txt
Wavelength (nm)	Absorbance
360	0.401794
361	0.403946
362	0.406099
363	0.408251
364	0.411121
365	0.41435
366	0.417578
367	0.420807
368	0.424036
369	0.427111
370	0.428956
371	0.430801
372	0.432646
373	0.434491
374	0.436336
375	0.438181
376	0.440026
377	0.442601
378	0.446637
379	0.450673
380	0.454709
381	0.458744
382	0.460732
383	0.462463
384	0.464194
385	0.465925
386	0.467656
387	0.469387
388	0.471119
389	0.474123
390	0.479902
391	0.485681
392	0.4914595
393	0.497238
394	0.503017
395	0.508796
396	0.514575
397	0.520059
398	0.524752
399	0.529444
400	0.534137
401	0.53883
402	0.543522
403	0.548215
404	0.552907
405	0.556579
406	0.559714
407	0.562849
408	0.565984
409	0.56912
410	0.572255
411	0.57774
412	0.584589
413	0.591438
414	0.598287
415	0.604355
416	0.609712
417	0.61507
418	0.620427
419	0.625784
420	0.630936
421	0.636062
422	0.641188
423	0.646337
424	0.651987
425	0.657637
426	0.663288
427	0.668938
428	0.674588
429	0.676757
430	0.678045
431	0.679333
432	0.680621
433	0.68191
434	0.683198
435	0.684486
436	0.685202
437	0.685202
438	0.685202
439	0.685202
440	0.685202
441	0.685202
442	0.685202
443	0.685202
444	0.685202
445	0.685202
446	0.685776
447	0.687067
448	0.688359
449	0.68965
450	0.690942
451	0.692233
452	0.693525
453	0.694816
454	0.696108
455	0.697399
456	0.698691
457	0.699552
458	0.699552
459	0.699552
460	0.699552
461	0.699552
462	0.699552
463	0.699552
464	0.699552
465	0.699552
466	0.699312
467	0.698774
468	0.698236
469	0.697698
470	0.69716
471	0.696622
472	0.696084
473	0.695279
474	0.694399
475	0.693518
476	0.692638
477	0.691757
478	0.690876
479	0.689996
480	0.689115
481	0.688235
482	0.687354
483	0.686474
484	0.685593
485	0.685202
486	0.685202
487	0.685202
488	0.685202
489	0.685202
490	0.685202
491	0.685202
492	0.685202
493	0.685202
494	0.685202
495	0.685202
496	0.685202
497	0.685202
498	0.685202
499	0.685202
500	0.685202
501	0.685202
502	0.685521
503	0.685879
504	0.686238
505	0.686597
506	0.686956
507	0.6873144
508	0.687673
509	0.688032
510	0.688391
511	0.688749
512	0.693812
513	0.699462
514	0.705112
515	0.710762
516	0.700508
517	0.702661
518	0.704813
519	0.706966
520	0.709118
521	0.711271
522	0.713423
523	0.716915
524	0.720789
525	0.724664
526	0.728538
527	0.732413
528	0.736143
529	0.739372
530	0.742601
531	0.74583
532	0.749058
533	0.752287
534	0.755516
535	0.758027
536	0.759964
537	0.761901
538	0.763839
539	0.765776
540	0.767713
541	0.770404
542	0.773094
543	0.775785
544	0.778475
545	0.781166
546	0.783857
547	0.78852
548	0.79713
549	0.80574
550	0.81435
551	0.8167713
552	0.819193
553	0.821614
554	0.824036
555	0.827623
556	0.832143
557	0.836664
558	0.841184
559	0.845704
560	0.850224
561	0.854099
562	0.857973
563	0.861848
564	0.865722
565	0.869596
566	0.8767713
567	0.888072
568	0.897668
569	0.9013
570	0.904933
571	0.908565
572	0.912197
573	0.91583
574	0.919462
575	0.923094
576	0.926726
577	0.930583
578	0.934888
579	0.939193
580	0.943498
581	0.947803
582	0.952108
583	0.956413
584	0.960717
585	0.965022
586	0.969327
587	0.972966
588	0.975272
589	0.977578
590	0.979885
591	0.982191
592	0.984497
593	0.986803
594	0.98911
595	0.990583
596	0.99139
597	0.992197
598	0.993004
599	0.993812
600	0.994619
601	0.995426
602	0.996233
603	0.99704
604	0.997309
605	0.997309
606	0.997309
607	0.997309
608	0.997309
609	0.997309
610	0.997309
611	0.997309
612	0.997309
613	0.997309
614	0.997309
615	0.996114
616	0.993961
617	0.991809
618	0.989656
619	0.987504
620	0.985351
621	0.983199
622	0.981046
623	0.978894
624	0.976741
625	0.973692
626	0.969925
627	0.966158
628	0.962392
629	0.958625
630	0.954858
631	0.951091
632	0.943019
633	0.93441
634	0.9258
635	0.919283
636	0.914439
637	0.909596
638	0.904753
639	0.899731
640	0.893274
641	0.886816
642	0.880359
643	0.873901
644	0.867444
645	0.860987
646	0.854529
647	0.848072
648	0.841614
649	0.835157
650	0.8287
651	0.822242
652	0.804305
653	0.796861
654	0.792825
655	0.788789
656	0.784753
657	0.774529
658	0.755874
659	0.751031
660	0.746188
661	0.740538
662	0.734888
663	0.729238
664	0.723587
665	0.681016
666	0.673483
667	0.665949
668	0.657524
669	0.64598
670	0.63497
671	0.626902
672	0.618833
673	0.60867
674	0.597907
675	0.587145
676	0.57722
677	0.568341
678	0.559462
679	0.550583
680	0.541704
681	0.533094
682	0.524484
683	0.515874
684	0.485022
685	0.459791
686	0.447952
687	0.436114
688	0.382242
689	0.374978
690	0.367713
691	0.360448
692	0.353184
693	0.347931
694	0.343252
695	0.338573
696	0.333894
697	0.329216
698	0.324537
699	0.319858
700	0.314778
701	0.305033
702	0.295288
703	0.285543
704	0.276173
705	0.268036
706	0.2599
707	0.251764
708	0.243401
709	0.234958
710	0.226514
711	0.218071
712	0.211227
713	0.204584
714	0.197941
715	0.191294
716	0.1845645
717	0.177835
718	0.171106
719	0.164779
720	0.15969
721	0.154601
722	0.149511
723	0.144422
724	0.14008
725	0.13592
726	0.13176
727	0.127599
728	0.123439
729	0.119278
730	0.115125
731	0.112392
732	0.10966
733	0.106927
734	0.104195
735	0.101462
736	0.0987299
737	0.09599738
738	0.0936954
739	0.0916141
740	0.0895328
741	0.0874515
742	0.0853702
743	0.0832889
744	0.0812076
745	0.0791263
746	0.0774108
747	0.0757076
748	0.0740043
749	0.072301
750	0.0705978
751	0.0688945
752	0.0671913
753	0.065488
754	0.06437528
755	0.0632729
756	0.0621704
757	0.061068
758	0.0599656
759	0.0588631
760	0.0577607
761	0.0572108
762	0.0570596
763	0.0569084
764	0.0567572
765	0.056606
766	0.0564548
767	0.0563036
768	0.05615237
769	0.0561156
770	0.0560934
771	0.05607114
772	0.0560489
773	0.0560267
774	0.0560044
775	0.0559822
776	0.05594357
777	0.0558368
778	0.0557301
779	0.0556234
780	0.0555166
781	0.0554099
782	0.0553032
783	0.0551964
784	0.0552633
785	0.0555035
786	0.0557436
787	0.0559838
788	0.0562239
789	0.05646407
790	0.0567042
791	0.0569444
792	0.0569692
793	0.0569425
794	0.0569158
795	0.0568891
796	0.0568624
797	0.0568358
798	0.0568091
799	0.0568036