File: conjugated_ECPs/uv_vis_automated/Adv. Mater., 22, 4949-4953, 2010/metadata/ECP-3.txt
Wavelength (nm)	Absorbance
360	0.357919
361	0.35988
362	0.362645
363	0.36546
364	0.368275
365	0.37109
366	0.373905
367	0.37672
368	0.379535
369	0.382463
370	0.38573
371	0.388998
372	0.392266
373	0.395534
374	0.398802
375	0.40207
376	0.405337
377	0.408687
378	0.412044
379	0.415402
380	0.41876
381	0.422118
382	0.425476
383	0.428834
384	0.433646
385	0.438604
386	0.443561
387	0.448518
388	0.453475
389	0.457681
390	0.461801
391	0.46592
392	0.47004
393	0.474159
394	0.478279
395	0.483499
396	0.489715
397	0.495931
398	0.502146
399	0.508215
400	0.513579
401	0.518944
402	0.524308
403	0.529672
404	0.535037
405	0.542649
406	0.550576
407	0.558502
408	0.564267
409	0.569424
410	0.57458
411	0.579737
412	0.584894
413	0.590627
414	0.596862
415	0.603096
416	0.609331
417	0.615805
418	0.622655
419	0.629504
420	0.636354
421	0.6430163
422	0.648541
423	0.654066
424	0.65959
425	0.665115
426	0.67064
427	0.677697
428	0.684932
429	0.692166
430	0.698483
431	0.704492
432	0.710501
433	0.71651
434	0.722519
435	0.728528
436	0.7345368
437	0.740546
438	0.746443
439	0.752138
440	0.757833
441	0.763528
442	0.769245
443	0.775074
444	0.780904
445	0.786733
446	0.792563
447	0.797949
448	0.803319
449	0.808688
450	0.814057
451	0.819249
452	0.824192
453	0.829135
454	0.834078
455	0.839021
456	0.843787
457	0.847698
458	0.85161
459	0.855522
460	0.859434
461	0.863345
462	0.867257
463	0.871425
464	0.875655
465	0.8798855
466	0.884116
467	0.888346
468	0.892546
469	0.896671
470	0.900795
471	0.90492
472	0.909045
473	0.913169
474	0.917294
475	0.920465
476	0.923093
477	0.925722
478	0.92835
479	0.930978
480	0.933607
481	0.936235
482	0.938863
483	0.940686
484	0.94246
485	0.944234
486	0.946009
487	0.947783
488	0.949558
489	0.951332
490	0.952936
491	0.95403
492	0.955124
493	0.956218
494	0.957312
495	0.958406
496	0.9595
497	0.960594
498	0.961634
499	0.962631
500	0.963628
501	0.964625
502	0.965623
503	0.96662
504	0.967655
505	0.968798
506	0.969941
507	0.971085
508	0.972228
509	0.973371
510	0.974514
511	0.975658
512	0.975785
513	0.975785
514	0.975785
515	0.975785
516	0.975785
517	0.975785
518	0.975785
519	0.975819
520	0.976125
521	0.976431
522	0.976737
523	0.977043
524	0.977349
525	0.977655
526	0.977961
527	0.978267
528	0.978426
529	0.978426
530	0.978426
531	0.978426
532	0.978426
533	0.978426
534	0.978426
535	0.978426
536	0.978299
537	0.978139
538	0.977979
539	0.977819
540	0.977659
541	0.977499
542	0.977339
543	0.977184
544	0.977077
545	0.97697
546	0.976864
547	0.976757
548	0.97665
549	0.976543
550	0.976437
551	0.97656
552	0.977025
553	0.977489
554	0.977954
555	0.978591
556	0.979893
557	0.981195
558	0.982497
559	0.983799
560	0.985101
561	0.986402
562	0.987504
563	0.98858
564	0.989656
565	0.990732
566	0.991809
567	0.992885
568	0.994081
569	0.995695
570	0.997309
571	0.998924
572	1.00054
573	1.00215
574	1.00377
575	1.00448
576	1.00448
577	1.00448
578	1.00448
579	1.00448
580	1.00448
581	1.00448
582	1.00448
583	1.00332
584	1.00182
585	1.00032
586	0.998826
587	0.997329
588	0.995831
589	0.994333
590	0.992835
591	0.991338
592	0.98984
593	0.98832
594	0.986773
595	0.985225
596	0.983677
597	0.98213
598	0.980582
599	0.979034
600	0.977487
601	0.97578
602	0.974019
603	0.972258
604	0.970497
605	0.968736
606	0.966975
607	0.965214
608	0.963426
609	0.961144
610	0.958863
611	0.956582
612	0.9543
613	0.952019
614	0.949737
615	0.947456
616	0.944926
617	0.941951
618	0.938976
619	0.936001
620	0.933025
621	0.93005
622	0.927075
623	0.9241
624	0.920636
625	0.916924
626	0.913213
627	0.909501
628	0.90579
629	0.902078
630	0.898347
631	0.89365
632	0.888953
633	0.884256
634	0.879559
635	0.874862
636	0.86967
637	0.864332
638	0.858995
639	0.853658
640	0.848321
641	0.842461
642	0.836528
643	0.830596
644	0.824664
645	0.818731
646	0.811976
647	0.805206
648	0.798435
649	0.791665
650	0.784566
651	0.777378
652	0.77019
653	0.762706
654	0.75488
655	0.747055
656	0.739229
657	0.731549
658	0.723908
659	0.716267
660	0.708401
661	0.700412
662	0.692423
663	0.684435
664	0.676467
665	0.668701
666	0.660934
667	0.653167
668	0.6454
669	0.637633
670	0.61704
671	0.609507
672	0.601973
673	0.594439
674	0.579013
675	0.565919
676	0.557848
677	0.530762
678	0.519462
679	0.5087
680	0.502242
681	0.495785
682	0.489327
683	0.48287
684	0.46565
685	0.459193
686	0.452735
687	0.446278
688	0.438386
689	0.407892
690	0.398206
691	0.38852
692	0.378834
693	0.369148
694	0.359462
695	0.351139
696	0.343907
697	0.336674
698	0.329442
699	0.322209
700	0.314778
701	0.305033
702	0.295288
703	0.285543
704	0.276173
705	0.268036
706	0.2599
707	0.251764
708	0.243401
709	0.234958
710	0.226514
711	0.218071
712	0.211227
713	0.204584
714	0.197941
715	0.191294
716	0.1845645
717	0.177835
718	0.171106
719	0.164779
720	0.15969
721	0.154601
722	0.149511
723	0.144422
724	0.139947
725	0.13562
726	0.131294
727	0.126967
728	0.122641
729	0.118314
730	0.113994
731	0.110884
732	0.107774
733	0.104664
734	0.101554
735	0.09844455
736	0.0953347
737	0.0922248
738	0.0899008
739	0.0879796
740	0.0860584
741	0.0841372
742	0.082216
743	0.0802948
744	0.0783736
745	0.0764524
746	0.0750655
747	0.0736965
748	0.0723275
749	0.0709584
750	0.06958938
751	0.0682203
752	0.0668513
753	0.0654823
754	0.0643344
755	0.0631904
756	0.0620463
757	0.0609023
758	0.0597583
759	0.0586143
760	0.0574702
761	0.0569261
762	0.05681495
763	0.0567038
764	0.0565926
765	0.0564814
766	0.0563702
767	0.056259
768	0.0561479
769	0.0561156
770	0.0560934
771	0.05607114
772	0.0560489
773	0.0560267
774	0.0560044
775	0.0559822
776	0.05594357
777	0.0558368
778	0.0557301
779	0.0556234
780	0.0555166
781	0.0554099
782	0.0553032
783	0.0551964
784	0.0552633
785	0.0555035
786	0.0557436
787	0.0559838
788	0.0562239
789	0.05646407
790	0.0567042
791	0.0569444
792	0.0569692
793	0.0569425
794	0.0569158
795	0.0568891
796	0.0568624
797	0.0568358
798	0.0568091
799	0.0568036