File: conjugated_ECPs/uv_vis_automated/Adv. Mater., 22, 4949-4953, 2010/metadata/ECP-5.txt
Wavelength (nm)	Absorbance
360	0.300041
361	0.300628
362	0.301215
363	0.303857
364	0.307085
365	0.310314
366	0.313543
367	0.3167713
368	0.32
369	0.3232287
370	0.326457
371	0.329686
372	0.335785
373	0.342242
374	0.346009
375	0.34843
376	0.350852
377	0.353274
378	0.355874
379	0.359103
380	0.362332
381	0.365561
382	0.368789
383	0.372018
384	0.375247
385	0.378475
386	0.381704
387	0.385578
388	0.390744
389	0.39591
390	0.401076
391	0.406242
392	0.411408
393	0.416741
394	0.422123
395	0.427504
396	0.432543
397	0.437156
398	0.441768
399	0.446381
400	0.450993
401	0.455605
402	0.460218
403	0.46483
404	0.471211
405	0.478475
406	0.48574
407	0.493004
408	0.499659
409	0.504179
410	0.5087
411	0.51322
412	0.51774
413	0.52226
414	0.533453
415	0.547982
416	0.559211
417	0.566314
418	0.573417
419	0.58052
420	0.587623
421	0.594726
422	0.600538
423	0.606188
424	0.611839
425	0.617489
426	0.623211
427	0.629022
428	0.634834
429	0.640646
430	0.646457
431	0.652269
432	0.660568
433	0.669178
434	0.677788
435	0.685202
436	0.691659
437	0.698117
438	0.704574
439	0.711031
440	0.717489
441	0.723946
442	0.730404
443	0.736861
444	0.743318
445	0.755157
446	0.7713
447	0.783812
448	0.789058
449	0.794305
450	0.799552
451	0.804798
452	0.810045
453	0.815291
454	0.820538
455	0.825785
456	0.830673
457	0.835112
458	0.839552
459	0.843991
460	0.84843
461	0.85287
462	0.857309
463	0.861749
464	0.866188
465	0.870952
466	0.875974
467	0.880997
468	0.886019
469	0.891041
470	0.896064
471	0.901086
472	0.906109
473	0.911131
474	0.916153
475	0.923049
476	0.931444
477	0.939839
478	0.948233
479	0.956628
480	0.965022
481	0.970096
482	0.97517
483	0.980243
484	0.985317
485	0.990391
486	0.995464
487	1.00054
488	1.00529
489	1.00892
490	1.01256
491	1.01619
492	1.01982
493	1.02345
494	1.02709
495	1.03072
496	1.03435
497	1.03769
498	1.04046
499	1.04323
500	1.046
501	1.04876
502	1.05153
503	1.0543
504	1.05707
505	1.05901
506	1.0603
507	1.0616
508	1.06289
509	1.06418
510	1.06547
511	1.06676
512	1.06805
513	1.06935
514	1.07064
515	1.07193
516	1.07296
517	1.07368
518	1.0744
519	1.07512
520	1.07583
521	1.07655
522	1.07727
523	1.07799
524	1.0787
525	1.07942
526	1.07946
527	1.07865
528	1.07785
529	1.07704
530	1.07623
531	1.07543
532	1.07462
533	1.07381
534	1.073
535	1.07193
536	1.07064
537	1.06935
538	1.06805
539	1.06676
540	1.06547
541	1.06418
542	1.06289
543	1.0616
544	1.0603
545	1.05901
546	1.05654
547	1.0526
548	1.04865
549	1.0447
550	1.04076
551	1.03681
552	1.03286
553	1.02892
554	1.02497
555	1.02103
556	1.01781
557	1.0155
558	1.0132
559	1.01089
560	1.00858
561	1.00628
562	1.00397
563	1.00167
564	0.999605
565	0.997668
566	0.995731
567	0.993794
568	0.991857
569	0.989919
570	0.987982
571	0.986045
572	0.984108
573	0.98217
574	0.980233
575	0.976383
576	0.971001
577	0.96562
578	0.960239
579	0.954858
580	0.949477
581	0.944096
582	0.932018
583	0.919103
584	0.91157
585	0.906726
586	0.901883
587	0.89704
588	0.893991
589	0.89722
590	0.900448
591	0.895283
592	0.890117
593	0.884951
594	0.879785
595	0.874619
596	0.870601
597	0.868018
598	0.865435
599	0.862852
600	0.860269
601	0.857686
602	0.849937
603	0.841543
604	0.833148
605	0.824753
606	0.816359
607	0.809417
608	0.805381
609	0.801345
610	0.797309
611	0.793274
612	0.785172
613	0.776562
614	0.767952
615	0.76278
616	0.760359
617	0.757937
618	0.755516
619	0.753094
620	0.750673
621	0.748251
622	0.74583
623	0.743408
624	0.739641
625	0.735202
626	0.730762
627	0.726323
628	0.721883
629	0.717444
630	0.713004
631	0.708565
632	0.704126
633	0.695605
634	0.685919
635	0.679372
636	0.675336
637	0.6713
638	0.667265
639	0.662601
640	0.652915
641	0.6432287
642	0.637848
643	0.633004
644	0.628161
645	0.623318
646	0.618117
647	0.612466
648	0.606816
649	0.601166
650	0.595516
651	0.58583
652	0.576143
653	0.566457
654	0.5567713
655	0.546188
656	0.534888
657	0.525561
658	0.520179
659	0.514798
660	0.509417
661	0.505543
662	0.501668
663	0.497794
664	0.493919
665	0.490045
666	0.484066
667	0.475456
668	0.466846
669	0.457997
670	0.447235
671	0.436472
672	0.42571
673	0.418296
674	0.411839
675	0.405381
676	0.378595
677	0.374828
678	0.371061
679	0.367294
680	0.363528
681	0.359761
682	0.355994
683	0.352646
684	0.349417
685	0.346188
686	0.34296
687	0.303139
688	0.297758
689	0.292377
690	0.286996
691	0.281614
692	0.276233
693	0.270852
694	0.266547
695	0.26278
696	0.259013
697	0.255247
698	0.25148
699	0.247713
700	0.243946
701	0.232969
702	0.221991
703	0.211013
704	0.200036
705	0.189058
706	0.196592
707	0.178834
708	0.164425
709	0.161734
710	0.159043
711	0.156353
712	0.153662
713	0.150972
714	0.148281
715	0.145516
716	0.142691
717	0.139865
718	0.13704
719	0.134215
720	0.13139
721	0.128565
722	0.12574
723	0.122915
724	0.114798
725	0.104036
726	0.0932735
727	0.0852616
728	0.0827504
729	0.0802392
730	0.077728
731	0.0752167
732	0.0727055
733	0.07019432
734	0.0676831
735	0.0651719
736	0.0626607
737	0.0599103
738	0.0566816
739	0.0534529
740	0.0502242
741	0.0469955
742	0.0437668
743	0.0405381
744	0.0386547
745	0.0374439
746	0.0362332
747	0.0350224
748	0.0338117
749	0.0326009
750	0.0313901
751	0.0301794
752	0.02896861
753	0.0280717
754	0.0272646
755	0.0264574
756	0.0256502
757	0.024843
758	0.0240359
759	0.0232287
760	0.0224215
761	0.02161435
762	0.0243946
763	0.0245326
764	0.0237875
765	0.0230424
766	0.0222973
767	0.0215523
768	0.0208072
769	0.02006209
770	0.019317
771	0.0185719
772	0.0178268
773	0.0170818
774	0.0163367
775	0.0155916
776	0.0148465
777	0.0142422
778	0.0139193
779	0.0135964
780	0.0132735
781	0.0129507
782	0.0126278
783	0.0123049
784	0.0119821
785	0.0116592
786	0.0113363
787	0.0110135
788	0.0107623
789	0.0107623
790	0.0107623
791	0.0107623
792	0.0107623
793	0.0107623
794	0.01058296
795	0.0103139
796	0.0100448
797	0.009775785
798	0.009506726
799	0.009237668