File: conjugated_ECPs/uv_vis_automated/ACS Macro Lett., 5, 714-717, 2016/metadata/PProDOT.txt
Wavelength (nm)	Absorbance
390	0.158283
391	0.159842
392	0.161401
393	0.16296
394	0.164518
395	0.166276
396	0.168266
397	0.170256
398	0.172246
399	0.174236
400	0.176226
401	0.178216
402	0.180206
403	0.182196
404	0.184185
405	0.186433
406	0.1887
407	0.190967
408	0.193234
409	0.195501
410	0.197769
411	0.200036
412	0.202303
413	0.20457
414	0.207015
415	0.209496
416	0.211977
417	0.214458
418	0.216939
419	0.21942
420	0.221902
421	0.224396
422	0.2273429
423	0.23029
424	0.233238
425	0.236185
426	0.239132
427	0.24208
428	0.245055
429	0.248296
430	0.251538
431	0.254779
432	0.258021
433	0.261263
434	0.264504
435	0.267959
436	0.271559
437	0.27516
438	0.27876
439	0.282361
440	0.285961
441	0.289674
442	0.293486
443	0.297299
444	0.301111
445	0.304923
446	0.308736
447	0.312805
448	0.316904
449	0.321003
450	0.325103
451	0.329202
452	0.333729
453	0.338445
454	0.3431605
455	0.347876
456	0.352994
457	0.358826
458	0.364657
459	0.370489
460	0.3764
461	0.382404
462	0.388408
463	0.394412
464	0.400627
465	0.407007
466	0.413387
467	0.419806
468	0.426602
469	0.433399
470	0.440195
471	0.446687
472	0.452997
473	0.459308
474	0.465619
475	0.47193
476	0.478241
477	0.484551
478	0.490814
479	0.497056
480	0.503297
481	0.509523
482	0.5156948
483	0.521867
484	0.528039
485	0.534411
486	0.540847
487	0.547283
488	0.553718
489	0.5616099
490	0.569739
491	0.577867
492	0.586619
493	0.595953
494	0.605286
495	0.614855
496	0.624841
497	0.634828
498	0.644872
499	0.654935
500	0.665774
501	0.678989
502	0.690768
503	0.699759
504	0.708751
505	0.717291
506	0.725736
507	0.734398
508	0.743798
509	0.753199
510	0.759704
511	0.764481
512	0.769258
513	0.774035
514	0.778812
515	0.78118
516	0.783156
517	0.785132
518	0.787108
519	0.789084
520	0.79106
521	0.793035
522	0.79507
523	0.798043
524	0.801016
525	0.803988
526	0.806961
527	0.809934
528	0.812906
529	0.815879
530	0.823776
531	0.831765
532	0.839991
533	0.850532
534	0.861073
535	0.871979
536	0.883259
537	0.89454
538	0.905986
539	0.917452
540	0.928433
541	0.938241
542	0.948049
543	0.956938
544	0.965781
545	0.974091
546	0.977178
547	0.980264
548	0.983351
549	0.986438
550	0.989524
551	0.992611
552	0.992062
553	0.989012
554	0.985962
555	0.982913
556	0.979863
557	0.976813
558	0.97319
559	0.963929
560	0.953981
561	0.94152
562	0.929059
563	0.915159
564	0.900802
565	0.886871
566	0.873232
567	0.859001
568	0.844244
569	0.829745
570	0.815246
571	0.812146
572	0.809533
573	0.80692
574	0.804308
575	0.801695
576	0.802073
577	0.806855
578	0.811638
579	0.816421
580	0.821203
581	0.825986
582	0.833499
583	0.84542
584	0.857443
585	0.870481
586	0.8834
587	0.896108
588	0.906979
589	0.916279
590	0.925855
591	0.937623
592	0.948679
593	0.956979
594	0.96528
595	0.972152
596	0.974932
597	0.977713
598	0.980493
599	0.983273
600	0.986053
601	0.983401
602	0.977492
603	0.971582
604	0.965673
605	0.959764
606	0.951345
607	0.939531
608	0.921307
609	0.889642
610	0.865193
611	0.836097
612	0.791521
613	0.751018
614	0.720394
615	0.67819
616	0.610518
617	0.562311
618	0.539889
619	0.462548
620	0.438352
621	0.401388
622	0.341182
623	0.294489
624	0.268011
625	0.246263
626	0.22074
627	0.201599
628	0.186471
629	0.17102
630	0.155185
631	0.140418
632	0.127405
633	0.117888
634	0.11229
635	0.106691
636	0.101093
637	0.0966522
638	0.0928127
639	0.0889732
640	0.0851336
641	0.0812941
642	0.0774546
643	0.0748503
644	0.0730996
645	0.0713489
646	0.0695982
647	0.0678475
648	0.0660969
649	0.0643462
650	0.0625955
651	0.0608448
652	0.0599836
653	0.059195
654	0.0584063
655	0.0576177
656	0.0568291
657	0.0560404
658	0.0552518
659	0.0544632
660	0.0536745
661	0.0530043
662	0.0525182
663	0.0520322
664	0.0515462
665	0.05106019
666	0.0505742
667	0.0500882
668	0.0496021
669	0.0491161
670	0.0486301
671	0.0481991
672	0.0477773
673	0.04735548
674	0.0469337
675	0.0465118
676	0.04609
677	0.0456682
678	0.0452463
679	0.0448245
680	0.0444681
681	0.044248
682	0.0440279
683	0.0438078
684	0.0435878
685	0.0433677
686	0.0431476
687	0.04292751
688	0.0427074
689	0.0424873
690	0.042173
691	0.0418337
692	0.0414944
693	0.0411551
694	0.0408158
695	0.0404765
696	0.0401372
697	0.03979792
698	0.0394586
699	0.0391547
700	0.038953
701	0.0387512
702	0.0385495
703	0.0383477
704	0.038146
705	0.03794426
706	0.0377425
707	0.0375408
708	0.03733903
709	0.0371838
710	0.0370462
711	0.0369086
712	0.0367711
713	0.0366335
714	0.036496
715	0.0363584
716	0.0362209
717	0.0360833
718	0.0359353
719	0.0357427
720	0.0355502
721	0.0353576
722	0.035165
723	0.0349724
724	0.0347799
725	0.0345873
726	0.0343947
727	0.0342021
728	0.0340638
729	0.0339537
730	0.0338437
731	0.0337337
732	0.0336236
733	0.03351358
734	0.0334035
735	0.0332935
736	0.0331835
737	0.0330711
738	0.0329428
739	0.0328144
740	0.032686
741	0.0325576
742	0.0324292
743	0.0323009
744	0.0321725
745	0.03204409
746	0.0319157
747	0.0317927
748	0.0316735
749	0.0315543
750	0.0314351
751	0.0313159
752	0.0311967
753	0.0310775
754	0.0309583
755	0.03083904
756	0.0307219
757	0.0306394
758	0.03055684
759	0.0304743
760	0.0303918
761	0.0303092
762	0.0302267
763	0.0301442
764	0.0300617
765	0.02997912
766	0.0299398
767	0.0299398
768	0.0299398
769	0.0299398
770	0.0299398
771	0.0299398
772	0.0299398
773	0.0299398
774	0.0299398
775	0.0299398
776	0.0299398
777	0.0299398
778	0.0299398
779	0.0299398
780	0.0299398
781	0.0299398
782	0.0299398
783	0.0299398
784	0.0299398
785	0.0299398
786	0.0299398
787	0.0299398
788	0.0299398
789	0.0299398
790	0.0299398
791	0.0299398
792	0.0299398
793	0.0299398
794	0.0299398
795	0.029999
796	0.0300632
797	0.0301274
798	0.0301916
799	0.03025576