File: conjugated_ECPs/uv_vis_automated/ACS Macro Lett., 5, 714-717, 2016/metadata/ProDOT-EDOS.csv
Wavelength (nm),Absorbance
390,0.131522
391,0.132274
392,0.133026
393,0.133778
394,0.13453
395,0.135472
396,0.136637
397,0.137801
398,0.138966
399,0.140131
400,0.141295
401,0.14246
402,0.143624
403,0.144789
404,0.145954
405,0.147288
406,0.148636
407,0.149984
408,0.151332
409,0.152681
410,0.154029
411,0.155377
412,0.156725
413,0.158073
414,0.159489
415,0.161012
416,0.162534
417,0.164056
418,0.165578
419,0.1671
420,0.168623
421,0.170145
422,0.171667
423,0.173189
424,0.174862
425,0.176558
426,0.178255
427,0.179951
428,0.181648
429,0.183344
430,0.185041
431,0.186737
432,0.188434
433,0.190211
434,0.192155
435,0.194099
436,0.196043
437,0.197987
438,0.199931
439,0.201876
440,0.20382
441,0.205764
442,0.207708
443,0.209921
444,0.212205
445,0.214488
446,0.216771
447,0.219055
448,0.221338
449,0.223621
450,0.225905
451,0.228188
452,0.230522
453,0.233
454,0.235478
455,0.237956
456,0.240434
457,0.242912
458,0.24539
459,0.247868
460,0.250358
461,0.253271
462,0.256183
463,0.259096
464,0.262009
465,0.264921
466,0.267834
467,0.270773
468,0.273967
469,0.277161
470,0.280355
471,0.283549
472,0.286743
473,0.289937
474,0.293319
475,0.296829
476,0.300338
477,0.303848
478,0.307358
479,0.310868
480,0.31461
481,0.318561
482,0.322512
483,0.326462
484,0.330413
485,0.334363
486,0.338714
487,0.343112
488,0.34751
489,0.351908
490,0.356337
491,0.360984
492,0.365631
493,0.370278
494,0.374925
495,0.379609
496,0.384362
497,0.389115
498,0.393868
499,0.398635
500,0.403949
501,0.409263
502,0.414576
503,0.419887
504,0.425176
505,0.430465
506,0.435754
507,0.441183
508,0.447088
509,0.452994
510,0.458899
511,0.464591
512,0.469843
513,0.475096
514,0.480348
515,0.485992
516,0.492164
517,0.498336
518,0.504508
519,0.51068
520,0.516852
521,0.523024
522,0.52947
523,0.536197
524,0.542924
525,0.549644
526,0.556117
527,0.562589
528,0.569062
529,0.57661
530,0.584165
531,0.591721
532,0.598748
533,0.605752
534,0.612756
535,0.62
536,0.62749
537,0.634979
538,0.642467
539,0.649888
540,0.657308
541,0.664728
542,0.671839
543,0.678704
544,0.68557
545,0.692429
546,0.699225
547,0.706021
548,0.712818
549,0.719397
550,0.725846
551,0.732296
552,0.73869
553,0.744793
554,0.750895
555,0.756998
556,0.762631
557,0.768056
558,0.773481
559,0.778905
560,0.784568
561,0.790294
562,0.796019
563,0.801745
564,0.807355
565,0.812829
566,0.818303
567,0.823777
568,0.829641
569,0.835813
570,0.841985
571,0.848164
572,0.854405
573,0.860647
574,0.866888
575,0.87339
576,0.880047
577,0.886705
578,0.893278
579,0.899406
580,0.905533
581,0.91166
582,0.917672
583,0.923353
584,0.929034
585,0.934715
586,0.940397
587,0.944918
588,0.949346
589,0.953773
590,0.958201
591,0.962629
592,0.965694
593,0.968243
594,0.970792
595,0.973341
596,0.97589
597,0.978439
598,0.980988
599,0.983537
600,0.983982
601,0.984257
602,0.984532
603,0.984808
604,0.985083
605,0.985358
606,0.9856329
607,0.985908
608,0.986183
609,0.986092
610,0.985432
611,0.984771
612,0.984111
613,0.983451
614,0.982791
615,0.98213
616,0.98147
617,0.98081
618,0.980149
619,0.98056
620,0.981147
621,0.981733
622,0.98232
623,0.982907
624,0.983494
625,0.984081
626,0.984668
627,0.985255
628,0.986038
629,0.98723
630,0.988423
631,0.989615
632,0.990807
633,0.991999
634,0.993191
635,0.994383
636,0.995575
637,0.996767
638,0.996537
639,0.995932
640,0.995327
641,0.994721
642,0.994116
643,0.993511
644,0.9929057
645,0.9923
646,0.991695
647,0.990422
648,0.9872268
649,0.984032
650,0.980837
651,0.977641
652,0.974446
653,0.971251
654,0.96735
655,0.96198
656,0.956609
657,0.951239
658,0.945869
659,0.939571
660,0.933264
661,0.926958
662,0.919886
663,0.912119
664,0.904352
665,0.896129
666,0.887868
667,0.879408
668,0.870531
669,0.861655
670,0.851385
671,0.840585
672,0.831152
673,0.822804
674,0.814455
675,0.805478
676,0.79593
677,0.786382
678,0.775176
679,0.763833
680,0.754965
681,0.746366
682,0.737603
683,0.728726
684,0.719849
685,0.711095
686,0.702341
687,0.694015
688,0.686353
689,0.678692
690,0.671166
691,0.663884
692,0.656603
693,0.649321
694,0.642842
695,0.636462
696,0.630082
697,0.623908
698,0.618013
699,0.612118
700,0.606224
701,0.599864
702,0.593484
703,0.587104
704,0.580588
705,0.5739301
706,0.567273
707,0.560607
708,0.553602
709,0.546598
710,0.539594
711,0.532087
712,0.524182
713,0.516276
714,0.508304
715,0.499665
716,0.491026
717,0.482359
718,0.473236
719,0.464113
720,0.455327
721,0.446944
722,0.43856
723,0.429543
724,0.420419
725,0.411138
726,0.401398
727,0.391658
728,0.382971
729,0.374834
730,0.36669
731,0.35843
732,0.35017
733,0.341853
734,0.33347
735,0.325086
736,0.31705
737,0.309071
738,0.301093
739,0.293916
740,0.286912
741,0.279908
742,0.273275
743,0.267311
744,0.261347
745,0.255383
746,0.24969
747,0.244031
748,0.238372
749,0.232713
750,0.22797
751,0.223236
752,0.218501
753,0.213767
754,0.209239
755,0.205426
756,0.201614
757,0.197801
758,0.193989
759,0.190177
760,0.186786
761,0.183688
762,0.180591
763,0.177493
764,0.174395
765,0.171298
766,0.1682
767,0.165598
768,0.163254
769,0.16091
770,0.158567
771,0.156223
772,0.15388
773,0.151536
774,0.149192
775,0.146849
776,0.145119
777,0.143395
778,0.141671
779,0.139947
780,0.138223
781,0.136499
782,0.134775
783,0.133051
784,0.131327
785,0.129799
786,0.128506
787,0.127213
788,0.12592
789,0.124627
790,0.123334
791,0.122041
792,0.120748
793,0.119455
794,0.118162
795,0.117369
796,0.116617
797,0.115865
798,0.115113
799,0.114361