File: conjugated_ECPs/uv_vis_automated/ACS Macro Lett., 5, 714-717, 2016/metadata/ProDOT-EDOT.txt
Wavelength (nm)	Absorbance
390	0.121252
391	0.122399
392	0.123545
393	0.124691
394	0.125837
395	0.127085
396	0.128452
397	0.129818
398	0.131184
399	0.1325506
400	0.133917
401	0.135283
402	0.13665
403	0.138016
404	0.139382
405	0.140853
406	0.142331
407	0.14381
408	0.145288
409	0.146767
410	0.148245
411	0.149724
412	0.151202
413	0.152681
414	0.154243
415	0.155822
416	0.157402
417	0.158981
418	0.160561
419	0.16214
420	0.16372
421	0.16565
422	0.167989
423	0.170329
424	0.172668
425	0.175007
426	0.177347
427	0.179686
428	0.182026
429	0.184365
430	0.186705
431	0.189044
432	0.191383
433	0.193723
434	0.196062
435	0.198402
436	0.200741
437	0.203081
438	0.20542
439	0.20787
440	0.210336
441	0.212802
442	0.215269
443	0.217735
444	0.220202
445	0.222668
446	0.225135
447	0.227951
448	0.23081
449	0.233668
450	0.236527
451	0.239385
452	0.242244
453	0.24535
454	0.248837
455	0.252325
456	0.255812
457	0.259299
458	0.262787
459	0.266339
460	0.270025
461	0.273712
462	0.277398
463	0.281085
464	0.284771
465	0.288787
466	0.292948
467	0.297109
468	0.30127
469	0.305431
470	0.309622
471	0.313845
472	0.318068
473	0.322292
474	0.326515
475	0.331314
476	0.336329
477	0.341344
478	0.34636
479	0.351393
480	0.356452
481	0.361512
482	0.366572
483	0.37165
484	0.377021
485	0.382391
486	0.387761
487	0.393132
488	0.398909
489	0.404839
490	0.410769
491	0.416699
492	0.422772
493	0.428875
494	0.434978
495	0.44128
496	0.447938
497	0.454595
498	0.461253
499	0.46853
500	0.475881
501	0.483232
502	0.490501
503	0.49766
504	0.50482
505	0.512412
506	0.520672
507	0.528933
508	0.53676
509	0.544474
510	0.552189
511	0.559522
512	0.566734
513	0.573946
514	0.581219
515	0.58864
516	0.59606
517	0.603481
518	0.610385
519	0.617181
520	0.623978
521	0.630774
522	0.63757
523	0.644366
524	0.651163
525	0.657959
526	0.664755
527	0.671551
528	0.678614
529	0.686034
530	0.693454
531	0.700875
532	0.708273
533	0.71567
534	0.723067
535	0.730807
536	0.738574
537	0.746663
538	0.755416
539	0.76417
540	0.772632
541	0.780985
542	0.789392
543	0.798176
544	0.806961
545	0.815469
546	0.82373
547	0.83199
548	0.839671
549	0.847306
550	0.854941
551	0.861539
552	0.868011
553	0.874484
554	0.880957
555	0.884834
556	0.888691
557	0.892548
558	0.896405
559	0.900262
560	0.904119
561	0.905781
562	0.907268
563	0.908754
564	0.91024
565	0.911726
566	0.913212
567	0.914699
568	0.916185
569	0.917608
570	0.918852
571	0.920096
572	0.92134
573	0.922585
574	0.923829
575	0.925073
576	0.926317
577	0.927561
578	0.929088
579	0.932117
580	0.935145
581	0.938173
582	0.941201
583	0.94423
584	0.947258
585	0.950576
586	0.954891
587	0.959206
588	0.963521
589	0.967836
590	0.972121
591	0.97525
592	0.978379
593	0.981508
594	0.984637
595	0.987766
596	0.990895
597	0.994024
598	0.994436
599	0.993439
600	0.992443
601	0.991446
602	0.990449
603	0.989452
604	0.988455
605	0.986238
606	0.98106
607	0.975882
608	0.970704
609	0.964511
610	0.956744
611	0.948977
612	0.940527
613	0.931897
614	0.923016
615	0.913079
616	0.903142
617	0.888668
618	0.873303
619	0.863382
620	0.853461
621	0.840192
622	0.8265061
623	0.813191
624	0.801483
625	0.790609
626	0.779065
627	0.766829
628	0.754593
629	0.744159
630	0.733945
631	0.723499
632	0.710184
633	0.699892
634	0.691993
635	0.684094
636	0.676199
637	0.668309
638	0.660418
639	0.652935
640	0.645485
641	0.638035
642	0.632236
643	0.626639
644	0.621042
645	0.615445
646	0.610292
647	0.605144
648	0.599995
649	0.594847
650	0.589865
651	0.584971
652	0.580076
653	0.575182
654	0.569214
655	0.562903
656	0.556592
657	0.550088
658	0.543114
659	0.536139
660	0.528897
661	0.520883
662	0.512869
663	0.502512
664	0.490935
665	0.480697
666	0.471847
667	0.462997
668	0.453559
669	0.443425
670	0.432082
671	0.417796
672	0.405344
673	0.394346
674	0.383403
675	0.372947
676	0.362638
677	0.352837
678	0.343036
679	0.333128
680	0.322772
681	0.312416
682	0.303153
683	0.294646
684	0.286139
685	0.277876
686	0.269616
687	0.261672
688	0.254222
689	0.246772
690	0.239754
691	0.233513
692	0.227271
693	0.22103
694	0.215538
695	0.210138
696	0.204738
697	0.199338
698	0.19468
699	0.190611
700	0.186543
701	0.182474
702	0.178406
703	0.17464
704	0.171418
705	0.168196
706	0.164974
707	0.161752
708	0.15853
709	0.155308
710	0.152827
711	0.150469
712	0.148111
713	0.145752
714	0.143394
715	0.141036
716	0.138678
717	0.13632
718	0.1341
719	0.132468
720	0.130835
721	0.129203
722	0.127571
723	0.125938
724	0.124306
725	0.122674
726	0.1210415
727	0.119409
728	0.118066
729	0.116874
730	0.115682
731	0.11449
732	0.113298
733	0.112105
734	0.110913
735	0.109721
736	0.108529
737	0.107371
738	0.106454
739	0.105537
740	0.10462
741	0.103703
742	0.102786
743	0.101869
744	0.100952
745	0.100035
746	0.0991178
747	0.0983253
748	0.09761916
749	0.0969131
750	0.096207
751	0.0955009
752	0.0947948
753	0.0940886
754	0.0933825
755	0.0926764
756	0.0919735
757	0.0913224
758	0.0906713
759	0.0900202
760	0.0893691
761	0.08871805
762	0.088067
763	0.0874159
764	0.0867648
765	0.0861137
766	0.0855202
767	0.08497917
768	0.08443813
769	0.0838971
770	0.0833561
771	0.082815
772	0.082274
773	0.0817329
774	0.0811919
775	0.0806509
776	0.0801733
777	0.0796965
778	0.0792196
779	0.0787428
780	0.078266
781	0.0777891
782	0.0773123
783	0.0768354
784	0.0763586
785	0.0759152
786	0.0755117
787	0.0751082
788	0.0747047
789	0.0743012
790	0.0738977
791	0.0734943
792	0.07309077
793	0.0726873
794	0.0722838
795	0.07215955
796	0.0720587
797	0.0719578
798	0.0718569
799	0.0717561